Press (GPa)	Temp (K)	Density (g/cm^-3)	dT/dP (K/GPa)
1e-06	100	0.93304	3.7224
1e-06	103.57	0.93293	4.0916
1e-06	107.14	0.93282	4.4771
1e-06	110.71	0.93269	4.8777
1e-06	114.29	0.93256	5.2922
1e-06	117.86	0.93241	5.7191
1e-06	121.43	0.93225	6.1571
1e-06	125	0.93209	6.6046
1e-06	128.57	0.93191	7.06
1e-06	132.14	0.93172	7.5219
1e-06	135.71	0.93152	7.9888
1e-06	139.29	0.93131	8.4592
1e-06	142.86	0.93108	8.9317
1e-06	146.43	0.93085	9.4051
1e-06	150	0.93061	9.8781
1e-06	153.57	0.93035	10.35
1e-06	157.14	0.93008	10.819
1e-06	160.71	0.92981	11.284
1e-06	164.29	0.92952	11.746
1e-06	167.86	0.92922	12.203
1e-06	171.43	0.92892	12.654
1e-06	175	0.9286	13.1
1e-06	178.57	0.92827	13.539
1e-06	182.14	0.92794	13.972
1e-06	185.71	0.92759	14.398
1e-06	189.29	0.92724	14.817
1e-06	192.86	0.92688	15.229
1e-06	196.43	0.9265	15.633
1e-06	200	0.92612	16.031
1e-06	203.57	0.92573	16.421
1e-06	207.14	0.92534	16.803
1e-06	210.71	0.92493	17.179
1e-06	214.29	0.92452	17.548
1e-06	217.86	0.9241	17.909
1e-06	221.43	0.92367	18.264
1e-06	225	0.92323	18.611
1e-06	228.57	0.92279	18.953
1e-06	232.14	0.92234	19.287
1e-06	235.71	0.92188	19.616
1e-06	239.29	0.92142	19.938
1e-06	242.86	0.92095	20.254
1e-06	246.43	0.92047	20.565
1e-06	250	0.91999	20.87
1e-06	253.57	0.9195	21.169
1e-06	257.14	0.919	21.463
1e-06	260.71	0.9185	21.751
1e-06	264.29	0.91799	22.035
1e-06	267.86	0.91748	22.314
1e-06	271.43	0.91696	22.587
1e-06	275	0.91644	22.857
1.2887e-06	100	0.93304	3.7224
1.2887e-06	103.57	0.93293	4.0916
1.2887e-06	107.14	0.93282	4.4771
1.2887e-06	110.71	0.93269	4.8777
1.2887e-06	114.29	0.93256	5.2922
1.2887e-06	117.86	0.93241	5.7191
1.2887e-06	121.43	0.93225	6.1571
1.2887e-06	125	0.93209	6.6046
1.2887e-06	128.57	0.93191	7.06
1.2887e-06	132.14	0.93172	7.5219
1.2887e-06	135.71	0.93152	7.9888
1.2887e-06	139.29	0.93131	8.4592
1.2887e-06	142.86	0.93108	8.9317
1.2887e-06	146.43	0.93085	9.4051
1.2887e-06	150	0.93061	9.8781
1.2887e-06	153.57	0.93035	10.35
1.2887e-06	157.14	0.93008	10.819
1.2887e-06	160.71	0.92981	11.284
1.2887e-06	164.29	0.92952	11.746
1.2887e-06	167.86	0.92922	12.203
1.2887e-06	171.43	0.92892	12.654
1.2887e-06	175	0.9286	13.1
1.2887e-06	178.57	0.92827	13.539
1.2887e-06	182.14	0.92794	13.972
1.2887e-06	185.71	0.92759	14.398
1.2887e-06	189.29	0.92724	14.817
1.2887e-06	192.86	0.92688	15.229
1.2887e-06	196.43	0.9265	15.633
1.2887e-06	200	0.92612	16.031
1.2887e-06	203.57	0.92573	16.421
1.2887e-06	207.14	0.92534	16.803
1.2887e-06	210.71	0.92493	17.179
1.2887e-06	214.29	0.92452	17.548
1.2887e-06	217.86	0.9241	17.909
1.2887e-06	221.43	0.92367	18.264
1.2887e-06	225	0.92323	18.611
1.2887e-06	228.57	0.92279	18.953
1.2887e-06	232.14	0.92234	19.287
1.2887e-06	235.71	0.92188	19.616
1.2887e-06	239.29	0.92142	19.938
1.2887e-06	242.86	0.92095	20.254
1.2887e-06	246.43	0.92047	20.565
1.2887e-06	250	0.91999	20.87
1.2887e-06	253.57	0.9195	21.169
1.2887e-06	257.14	0.919	21.463
1.2887e-06	260.71	0.9185	21.751
1.2887e-06	264.29	0.91799	22.035
1.2887e-06	267.86	0.91748	22.314
1.2887e-06	271.43	0.91696	22.587
1.2887e-06	275	0.91644	22.857
1.6608e-06	100	0.93304	3.7224
1.6608e-06	103.57	0.93293	4.0916
1.6608e-06	107.14	0.93282	4.4771
1.6608e-06	110.71	0.93269	4.8777
1.6608e-06	114.29	0.93256	5.2922
1.6608e-06	117.86	0.93241	5.7191
1.6608e-06	121.43	0.93225	6.1571
1.6608e-06	125	0.93209	6.6045
1.6608e-06	128.57	0.93191	7.06
1.6608e-06	132.14	0.93172	7.5219
1.6608e-06	135.71	0.93152	7.9888
1.6608e-06	139.29	0.93131	8.4592
1.6608e-06	142.86	0.93108	8.9317
1.6608e-06	146.43	0.93085	9.4051
1.6608e-06	150	0.93061	9.8781
1.6608e-06	153.57	0.93035	10.35
1.6608e-06	157.14	0.93008	10.819
1.6608e-06	160.71	0.92981	11.284
1.6608e-06	164.29	0.92952	11.746
1.6608e-06	167.86	0.92922	12.203
1.6608e-06	171.43	0.92892	12.654
1.6608e-06	175	0.9286	13.1
1.6608e-06	178.57	0.92827	13.539
1.6608e-06	182.14	0.92794	13.972
1.6608e-06	185.71	0.92759	14.398
1.6608e-06	189.29	0.92724	14.817
1.6608e-06	192.86	0.92688	15.229
1.6608e-06	196.43	0.9265	15.633
1.6608e-06	200	0.92612	16.031
1.6608e-06	203.57	0.92573	16.421
1.6608e-06	207.14	0.92534	16.803
1.6608e-06	210.71	0.92493	17.179
1.6608e-06	214.29	0.92452	17.548
1.6608e-06	217.86	0.9241	17.909
1.6608e-06	221.43	0.92367	18.264
1.6608e-06	225	0.92323	18.611
1.6608e-06	228.57	0.92279	18.953
1.6608e-06	232.14	0.92234	19.287
1.6608e-06	235.71	0.92188	19.616
1.6608e-06	239.29	0.92142	19.938
1.6608e-06	242.86	0.92095	20.254
1.6608e-06	246.43	0.92047	20.565
1.6608e-06	250	0.91999	20.87
1.6608e-06	253.57	0.9195	21.169
1.6608e-06	257.14	0.919	21.463
1.6608e-06	260.71	0.9185	21.751
1.6608e-06	264.29	0.91799	22.035
1.6608e-06	267.86	0.91748	22.314
1.6608e-06	271.43	0.91696	22.587
1.6608e-06	275	0.91644	22.857
2.1404e-06	100	0.93304	3.7224
2.1404e-06	103.57	0.93293	4.0916
2.1404e-06	107.14	0.93282	4.4771
2.1404e-06	110.71	0.93269	4.8777
2.1404e-06	114.29	0.93256	5.2922
2.1404e-06	117.86	0.93241	5.7191
2.1404e-06	121.43	0.93225	6.1571
2.1404e-06	125	0.93209	6.6045
2.1404e-06	128.57	0.93191	7.06
2.1404e-06	132.14	0.93172	7.5219
2.1404e-06	135.71	0.93152	7.9888
2.1404e-06	139.29	0.93131	8.4592
2.1404e-06	142.86	0.93108	8.9317
2.1404e-06	146.43	0.93085	9.4051
2.1404e-06	150	0.93061	9.8781
2.1404e-06	153.57	0.93035	10.35
2.1404e-06	157.14	0.93008	10.819
2.1404e-06	160.71	0.92981	11.284
2.1404e-06	164.29	0.92952	11.746
2.1404e-06	167.86	0.92922	12.203
2.1404e-06	171.43	0.92892	12.654
2.1404e-06	175	0.9286	13.1
2.1404e-06	178.57	0.92827	13.539
2.1404e-06	182.14	0.92794	13.972
2.1404e-06	185.71	0.92759	14.398
2.1404e-06	189.29	0.92724	14.817
2.1404e-06	192.86	0.92688	15.229
2.1404e-06	196.43	0.9265	15.633
2.1404e-06	200	0.92612	16.031
2.1404e-06	203.57	0.92573	16.421
2.1404e-06	207.14	0.92534	16.803
2.1404e-06	210.71	0.92493	17.179
2.1404e-06	214.29	0.92452	17.548
2.1404e-06	217.86	0.9241	17.909
2.1404e-06	221.43	0.92367	18.264
2.1404e-06	225	0.92323	18.611
2.1404e-06	228.57	0.92279	18.953
2.1404e-06	232.14	0.92234	19.287
2.1404e-06	235.71	0.92188	19.616
2.1404e-06	239.29	0.92142	19.938
2.1404e-06	242.86	0.92095	20.254
2.1404e-06	246.43	0.92047	20.565
2.1404e-06	250	0.91999	20.87
2.1404e-06	253.57	0.9195	21.169
2.1404e-06	257.14	0.919	21.463
2.1404e-06	260.71	0.9185	21.751
2.1404e-06	264.29	0.91799	22.035
2.1404e-06	267.86	0.91748	22.314
2.1404e-06	271.43	0.91696	22.587
2.1404e-06	275	0.91644	22.857
2.7583e-06	100	0.93304	3.7224
2.7583e-06	103.57	0.93293	4.0916
2.7583e-06	107.14	0.93282	4.4771
2.7583e-06	110.71	0.93269	4.8777
2.7583e-06	114.29	0.93256	5.2922
2.7583e-06	117.86	0.93241	5.7191
2.7583e-06	121.43	0.93225	6.1571
2.7583e-06	125	0.93209	6.6045
2.7583e-06	128.57	0.93191	7.06
2.7583e-06	132.14	0.93172	7.5219
2.7583e-06	135.71	0.93152	7.9888
2.7583e-06	139.29	0.93131	8.4592
2.7583e-06	142.86	0.93108	8.9317
2.7583e-06	146.43	0.93085	9.4051
2.7583e-06	150	0.93061	9.8781
2.7583e-06	153.57	0.93035	10.35
2.7583e-06	157.14	0.93008	10.819
2.7583e-06	160.71	0.92981	11.284
2.7583e-06	164.29	0.92952	11.746
2.7583e-06	167.86	0.92922	12.203
2.7583e-06	171.43	0.92892	12.654
2.7583e-06	175	0.9286	13.1
2.7583e-06	178.57	0.92827	13.539
2.7583e-06	182.14	0.92794	13.972
2.7583e-06	185.71	0.92759	14.398
2.7583e-06	189.29	0.92724	14.817
2.7583e-06	192.86	0.92688	15.229
2.7583e-06	196.43	0.9265	15.633
2.7583e-06	200	0.92612	16.031
2.7583e-06	203.57	0.92573	16.421
2.7583e-06	207.14	0.92534	16.803
2.7583e-06	210.71	0.92493	17.179
2.7583e-06	214.29	0.92452	17.547
2.7583e-06	217.86	0.9241	17.909
2.7583e-06	221.43	0.92367	18.264
2.7583e-06	225	0.92323	18.611
2.7583e-06	228.57	0.92279	18.953
2.7583e-06	232.14	0.92234	19.287
2.7583e-06	235.71	0.92188	19.616
2.7583e-06	239.29	0.92142	19.938
2.7583e-06	242.86	0.92095	20.254
2.7583e-06	246.43	0.92047	20.565
2.7583e-06	250	0.91999	20.87
2.7583e-06	253.57	0.9195	21.169
2.7583e-06	257.14	0.919	21.463
2.7583e-06	260.71	0.9185	21.751
2.7583e-06	264.29	0.91799	22.035
2.7583e-06	267.86	0.91748	22.313
2.7583e-06	271.43	0.91696	22.587
2.7583e-06	275	0.91644	22.857
3.5548e-06	100	0.93304	3.7224
3.5548e-06	103.57	0.93293	4.0916
3.5548e-06	107.14	0.93282	4.4771
3.5548e-06	110.71	0.93269	4.8777
3.5548e-06	114.29	0.93256	5.2922
3.5548e-06	117.86	0.93241	5.7191
3.5548e-06	121.43	0.93225	6.1571
3.5548e-06	125	0.93209	6.6045
3.5548e-06	128.57	0.93191	7.06
3.5548e-06	132.14	0.93172	7.5219
3.5548e-06	135.71	0.93152	7.9888
3.5548e-06	139.29	0.93131	8.4592
3.5548e-06	142.86	0.93108	8.9317
3.5548e-06	146.43	0.93085	9.4051
3.5548e-06	150	0.93061	9.878
3.5548e-06	153.57	0.93035	10.35
3.5548e-06	157.14	0.93008	10.819
3.5548e-06	160.71	0.92981	11.284
3.5548e-06	164.29	0.92952	11.746
3.5548e-06	167.86	0.92922	12.203
3.5548e-06	171.43	0.92892	12.654
3.5548e-06	175	0.9286	13.1
3.5548e-06	178.57	0.92827	13.539
3.5548e-06	182.14	0.92794	13.972
3.5548e-06	185.71	0.92759	14.398
3.5548e-06	189.29	0.92724	14.817
3.5548e-06	192.86	0.92688	15.229
3.5548e-06	196.43	0.9265	15.633
3.5548e-06	200	0.92612	16.031
3.5548e-06	203.57	0.92573	16.421
3.5548e-06	207.14	0.92534	16.803
3.5548e-06	210.71	0.92493	17.179
3.5548e-06	214.29	0.92452	17.547
3.5548e-06	217.86	0.9241	17.909
3.5548e-06	221.43	0.92367	18.264
3.5548e-06	225	0.92323	18.611
3.5548e-06	228.57	0.92279	18.953
3.5548e-06	232.14	0.92234	19.287
3.5548e-06	235.71	0.92188	19.616
3.5548e-06	239.29	0.92142	19.938
3.5548e-06	242.86	0.92095	20.254
3.5548e-06	246.43	0.92047	20.565
3.5548e-06	250	0.91999	20.87
3.5548e-06	253.57	0.9195	21.169
3.5548e-06	257.14	0.919	21.463
3.5548e-06	260.71	0.9185	21.751
3.5548e-06	264.29	0.91799	22.035
3.5548e-06	267.86	0.91748	22.313
3.5548e-06	271.43	0.91696	22.587
3.5548e-06	275	0.91644	22.857
4.5811e-06	100	0.93304	3.7224
4.5811e-06	103.57	0.93293	4.0916
4.5811e-06	107.14	0.93282	4.4771
4.5811e-06	110.71	0.93269	4.8777
4.5811e-06	114.29	0.93256	5.2921
4.5811e-06	117.86	0.93241	5.7191
4.5811e-06	121.43	0.93225	6.157
4.5811e-06	125	0.93209	6.6045
4.5811e-06	128.57	0.93191	7.06
4.5811e-06	132.14	0.93172	7.5219
4.5811e-06	135.71	0.93152	7.9888
4.5811e-06	139.29	0.93131	8.4592
4.5811e-06	142.86	0.93108	8.9317
4.5811e-06	146.43	0.93085	9.405
4.5811e-06	150	0.93061	9.878
4.5811e-06	153.57	0.93035	10.35
4.5811e-06	157.14	0.93008	10.819
4.5811e-06	160.71	0.92981	11.284
4.5811e-06	164.29	0.92952	11.746
4.5811e-06	167.86	0.92922	12.203
4.5811e-06	171.43	0.92892	12.654
4.5811e-06	175	0.9286	13.1
4.5811e-06	178.57	0.92827	13.539
4.5811e-06	182.14	0.92794	13.972
4.5811e-06	185.71	0.92759	14.398
4.5811e-06	189.29	0.92724	14.817
4.5811e-06	192.86	0.92688	15.229
4.5811e-06	196.43	0.9265	15.633
4.5811e-06	200	0.92612	16.031
4.5811e-06	203.57	0.92573	16.421
4.5811e-06	207.14	0.92534	16.803
4.5811e-06	210.71	0.92493	17.179
4.5811e-06	214.29	0.92452	17.547
4.5811e-06	217.86	0.9241	17.909
4.5811e-06	221.43	0.92367	18.264
4.5811e-06	225	0.92323	18.611
4.5811e-06	228.57	0.92279	18.953
4.5811e-06	232.14	0.92234	19.287
4.5811e-06	235.71	0.92188	19.616
4.5811e-06	239.29	0.92142	19.938
4.5811e-06	242.86	0.92095	20.254
4.5811e-06	246.43	0.92047	20.565
4.5811e-06	250	0.91999	20.87
4.5811e-06	253.57	0.9195	21.169
4.5811e-06	257.14	0.919	21.463
4.5811e-06	260.71	0.9185	21.751
4.5811e-06	264.29	0.91799	22.035
4.5811e-06	267.86	0.91748	22.313
4.5811e-06	271.43	0.91696	22.587
4.5811e-06	275	0.91644	22.857
5.9038e-06	100	0.93304	3.7224
5.9038e-06	103.57	0.93293	4.0916
5.9038e-06	107.14	0.93282	4.4771
5.9038e-06	110.71	0.93269	4.8777
5.9038e-06	114.29	0.93256	5.2921
5.9038e-06	117.86	0.93241	5.7191
5.9038e-06	121.43	0.93225	6.157
5.9038e-06	125	0.93209	6.6045
5.9038e-06	128.57	0.93191	7.06
5.9038e-06	132.14	0.93172	7.5219
5.9038e-06	135.71	0.93152	7.9888
5.9038e-06	139.29	0.93131	8.4591
5.9038e-06	142.86	0.93108	8.9317
5.9038e-06	146.43	0.93085	9.405
5.9038e-06	150	0.93061	9.878
5.9038e-06	153.57	0.93035	10.35
5.9038e-06	157.14	0.93008	10.819
5.9038e-06	160.71	0.92981	11.284
5.9038e-06	164.29	0.92952	11.746
5.9038e-06	167.86	0.92922	12.203
5.9038e-06	171.43	0.92892	12.654
5.9038e-06	175	0.9286	13.1
5.9038e-06	178.57	0.92827	13.539
5.9038e-06	182.14	0.92794	13.972
5.9038e-06	185.71	0.92759	14.398
5.9038e-06	189.29	0.92724	14.817
5.9038e-06	192.86	0.92688	15.229
5.9038e-06	196.43	0.9265	15.633
5.9038e-06	200	0.92612	16.031
5.9038e-06	203.57	0.92573	16.421
5.9038e-06	207.14	0.92534	16.803
5.9038e-06	210.71	0.92493	17.179
5.9038e-06	214.29	0.92452	17.547
5.9038e-06	217.86	0.9241	17.909
5.9038e-06	221.43	0.92367	18.264
5.9038e-06	225	0.92323	18.611
5.9038e-06	228.57	0.92279	18.953
5.9038e-06	232.14	0.92234	19.287
5.9038e-06	235.71	0.92188	19.616
5.9038e-06	239.29	0.92142	19.938
5.9038e-06	242.86	0.92095	20.254
5.9038e-06	246.43	0.92047	20.565
5.9038e-06	250	0.91999	20.869
5.9038e-06	253.57	0.9195	21.169
5.9038e-06	257.14	0.919	21.463
5.9038e-06	260.71	0.9185	21.751
5.9038e-06	264.29	0.91799	22.035
5.9038e-06	267.86	0.91748	22.313
5.9038e-06	271.43	0.91696	22.587
5.9038e-06	275	0.91644	22.857
7.6085e-06	100	0.93304	3.7224
7.6085e-06	103.57	0.93293	4.0916
7.6085e-06	107.14	0.93282	4.4771
7.6085e-06	110.71	0.93269	4.8777
7.6085e-06	114.29	0.93256	5.2921
7.6085e-06	117.86	0.93241	5.7191
7.6085e-06	121.43	0.93225	6.157
7.6085e-06	125	0.93209	6.6045
7.6085e-06	128.57	0.93191	7.06
7.6085e-06	132.14	0.93172	7.5219
7.6085e-06	135.71	0.93152	7.9887
7.6085e-06	139.29	0.93131	8.4591
7.6085e-06	142.86	0.93108	8.9316
7.6085e-06	146.43	0.93085	9.405
7.6085e-06	150	0.93061	9.878
7.6085e-06	153.57	0.93035	10.35
7.6085e-06	157.14	0.93008	10.819
7.6085e-06	160.71	0.92981	11.284
7.6085e-06	164.29	0.92952	11.746
7.6085e-06	167.86	0.92923	12.203
7.6085e-06	171.43	0.92892	12.654
7.6085e-06	175	0.9286	13.1
7.6085e-06	178.57	0.92827	13.539
7.6085e-06	182.14	0.92794	13.972
7.6085e-06	185.71	0.92759	14.398
7.6085e-06	189.29	0.92724	14.817
7.6085e-06	192.86	0.92688	15.229
7.6085e-06	196.43	0.9265	15.633
7.6085e-06	200	0.92612	16.031
7.6085e-06	203.57	0.92573	16.421
7.6085e-06	207.14	0.92534	16.803
7.6085e-06	210.71	0.92493	17.179
7.6085e-06	214.29	0.92452	17.547
7.6085e-06	217.86	0.9241	17.909
7.6085e-06	221.43	0.92367	18.263
7.6085e-06	225	0.92323	18.611
7.6085e-06	228.57	0.92279	18.953
7.6085e-06	232.14	0.92234	19.287
7.6085e-06	235.71	0.92188	19.616
7.6085e-06	239.29	0.92142	19.938
7.6085e-06	242.86	0.92095	20.254
7.6085e-06	246.43	0.92047	20.565
7.6085e-06	250	0.91999	20.869
7.6085e-06	253.57	0.9195	21.169
7.6085e-06	257.14	0.919	21.462
7.6085e-06	260.71	0.9185	21.751
7.6085e-06	264.29	0.91799	22.035
7.6085e-06	267.86	0.91748	22.313
7.6085e-06	271.43	0.91696	22.587
7.6085e-06	275	0.91644	22.856
9.8052e-06	100	0.93304	3.7224
9.8052e-06	103.57	0.93293	4.0916
9.8052e-06	107.14	0.93282	4.4771
9.8052e-06	110.71	0.93269	4.8777
9.8052e-06	114.29	0.93256	5.2921
9.8052e-06	117.86	0.93241	5.719
9.8052e-06	121.43	0.93225	6.157
9.8052e-06	125	0.93209	6.6045
9.8052e-06	128.57	0.93191	7.0599
9.8052e-06	132.14	0.93172	7.5218
9.8052e-06	135.71	0.93152	7.9887
9.8052e-06	139.29	0.93131	8.4591
9.8052e-06	142.86	0.93108	8.9316
9.8052e-06	146.43	0.93085	9.405
9.8052e-06	150	0.93061	9.878
9.8052e-06	153.57	0.93035	10.349
9.8052e-06	157.14	0.93009	10.819
9.8052e-06	160.71	0.92981	11.284
9.8052e-06	164.29	0.92952	11.746
9.8052e-06	167.86	0.92923	12.203
9.8052e-06	171.43	0.92892	12.654
9.8052e-06	175	0.9286	13.1
9.8052e-06	178.57	0.92828	13.539
9.8052e-06	182.14	0.92794	13.972
9.8052e-06	185.71	0.92759	14.398
9.8052e-06	189.29	0.92724	14.817
9.8052e-06	192.86	0.92688	15.229
9.8052e-06	196.43	0.9265	15.633
9.8052e-06	200	0.92612	16.03
9.8052e-06	203.57	0.92573	16.42
9.8052e-06	207.14	0.92534	16.803
9.8052e-06	210.71	0.92493	17.179
9.8052e-06	214.29	0.92452	17.547
9.8052e-06	217.86	0.9241	17.909
9.8052e-06	221.43	0.92367	18.263
9.8052e-06	225	0.92323	18.611
9.8052e-06	228.57	0.92279	18.953
9.8052e-06	232.14	0.92234	19.287
9.8052e-06	235.71	0.92188	19.616
9.8052e-06	239.29	0.92142	19.938
9.8052e-06	242.86	0.92095	20.254
9.8052e-06	246.43	0.92047	20.565
9.8052e-06	250	0.91999	20.869
9.8052e-06	253.57	0.9195	21.169
9.8052e-06	257.14	0.919	21.462
9.8052e-06	260.71	0.9185	21.751
9.8052e-06	264.29	0.91799	22.035
9.8052e-06	267.86	0.91748	22.313
9.8052e-06	271.43	0.91696	22.587
9.8052e-06	275	0.91644	22.856
1.2636e-05	100	0.93304	3.7224
1.2636e-05	103.57	0.93294	4.0916
1.2636e-05	107.14	0.93282	4.477
1.2636e-05	110.71	0.93269	4.8776
1.2636e-05	114.29	0.93256	5.2921
1.2636e-05	117.86	0.93241	5.719
1.2636e-05	121.43	0.93225	6.157
1.2636e-05	125	0.93209	6.6044
1.2636e-05	128.57	0.93191	7.0599
1.2636e-05	132.14	0.93172	7.5218
1.2636e-05	135.71	0.93152	7.9887
1.2636e-05	139.29	0.93131	8.4591
1.2636e-05	142.86	0.93108	8.9316
1.2636e-05	146.43	0.93085	9.4049
1.2636e-05	150	0.93061	9.8779
1.2636e-05	153.57	0.93035	10.349
1.2636e-05	157.14	0.93009	10.819
1.2636e-05	160.71	0.92981	11.284
1.2636e-05	164.29	0.92952	11.746
1.2636e-05	167.86	0.92923	12.203
1.2636e-05	171.43	0.92892	12.654
1.2636e-05	175	0.9286	13.1
1.2636e-05	178.57	0.92828	13.539
1.2636e-05	182.14	0.92794	13.972
1.2636e-05	185.71	0.92759	14.398
1.2636e-05	189.29	0.92724	14.817
1.2636e-05	192.86	0.92688	15.229
1.2636e-05	196.43	0.9265	15.633
1.2636e-05	200	0.92612	16.03
1.2636e-05	203.57	0.92573	16.42
1.2636e-05	207.14	0.92534	16.803
1.2636e-05	210.71	0.92493	17.179
1.2636e-05	214.29	0.92452	17.547
1.2636e-05	217.86	0.9241	17.909
1.2636e-05	221.43	0.92367	18.263
1.2636e-05	225	0.92323	18.611
1.2636e-05	228.57	0.92279	18.952
1.2636e-05	232.14	0.92234	19.287
1.2636e-05	235.71	0.92188	19.616
1.2636e-05	239.29	0.92142	19.938
1.2636e-05	242.86	0.92095	20.254
1.2636e-05	246.43	0.92047	20.565
1.2636e-05	250	0.91999	20.869
1.2636e-05	253.57	0.9195	21.169
1.2636e-05	257.14	0.919	21.462
1.2636e-05	260.71	0.9185	21.751
1.2636e-05	264.29	0.91799	22.035
1.2636e-05	267.86	0.91748	22.313
1.2636e-05	271.43	0.91696	22.587
1.2636e-05	275	0.91644	22.856
1.6285e-05	100	0.93304	3.7224
1.6285e-05	103.57	0.93294	4.0915
1.6285e-05	107.14	0.93282	4.477
1.6285e-05	110.71	0.93269	4.8776
1.6285e-05	114.29	0.93256	5.2921
1.6285e-05	117.86	0.93241	5.719
1.6285e-05	121.43	0.93226	6.1569
1.6285e-05	125	0.93209	6.6044
1.6285e-05	128.57	0.93191	7.0599
1.6285e-05	132.14	0.93172	7.5218
1.6285e-05	135.71	0.93152	7.9886
1.6285e-05	139.29	0.93131	8.459
1.6285e-05	142.86	0.93108	8.9315
1.6285e-05	146.43	0.93085	9.4049
1.6285e-05	150	0.93061	9.8779
1.6285e-05	153.57	0.93035	10.349
1.6285e-05	157.14	0.93009	10.818
1.6285e-05	160.71	0.92981	11.284
1.6285e-05	164.29	0.92952	11.746
1.6285e-05	167.86	0.92923	12.203
1.6285e-05	171.43	0.92892	12.654
1.6285e-05	175	0.9286	13.1
1.6285e-05	178.57	0.92828	13.539
1.6285e-05	182.14	0.92794	13.972
1.6285e-05	185.71	0.92759	14.398
1.6285e-05	189.29	0.92724	14.817
1.6285e-05	192.86	0.92688	15.229
1.6285e-05	196.43	0.9265	15.633
1.6285e-05	200	0.92612	16.03
1.6285e-05	203.57	0.92573	16.42
1.6285e-05	207.14	0.92534	16.803
1.6285e-05	210.71	0.92493	17.179
1.6285e-05	214.29	0.92452	17.547
1.6285e-05	217.86	0.9241	17.909
1.6285e-05	221.43	0.92367	18.263
1.6285e-05	225	0.92323	18.611
1.6285e-05	228.57	0.92279	18.952
1.6285e-05	232.14	0.92234	19.287
1.6285e-05	235.71	0.92188	19.616
1.6285e-05	239.29	0.92142	19.938
1.6285e-05	242.86	0.92095	20.254
1.6285e-05	246.43	0.92047	20.564
1.6285e-05	250	0.91999	20.869
1.6285e-05	253.57	0.9195	21.168
1.6285e-05	257.14	0.919	21.462
1.6285e-05	260.71	0.9185	21.751
1.6285e-05	264.29	0.91799	22.034
1.6285e-05	267.86	0.91748	22.313
1.6285e-05	271.43	0.91696	22.587
1.6285e-05	275	0.91644	22.856
2.0987e-05	100	0.93304	3.7223
2.0987e-05	103.57	0.93294	4.0915
2.0987e-05	107.14	0.93282	4.477
2.0987e-05	110.71	0.93269	4.8776
2.0987e-05	114.29	0.93256	5.292
2.0987e-05	117.86	0.93241	5.719
2.0987e-05	121.43	0.93226	6.1569
2.0987e-05	125	0.93209	6.6044
2.0987e-05	128.57	0.93191	7.0598
2.0987e-05	132.14	0.93172	7.5217
2.0987e-05	135.71	0.93152	7.9886
2.0987e-05	139.29	0.93131	8.459
2.0987e-05	142.86	0.93108	8.9315
2.0987e-05	146.43	0.93085	9.4048
2.0987e-05	150	0.93061	9.8778
2.0987e-05	153.57	0.93035	10.349
2.0987e-05	157.14	0.93009	10.818
2.0987e-05	160.71	0.92981	11.284
2.0987e-05	164.29	0.92952	11.746
2.0987e-05	167.86	0.92923	12.203
2.0987e-05	171.43	0.92892	12.654
2.0987e-05	175	0.9286	13.1
2.0987e-05	178.57	0.92828	13.539
2.0987e-05	182.14	0.92794	13.972
2.0987e-05	185.71	0.92759	14.398
2.0987e-05	189.29	0.92724	14.817
2.0987e-05	192.86	0.92688	15.228
2.0987e-05	196.43	0.9265	15.633
2.0987e-05	200	0.92612	16.03
2.0987e-05	203.57	0.92573	16.42
2.0987e-05	207.14	0.92534	16.803
2.0987e-05	210.71	0.92493	17.179
2.0987e-05	214.29	0.92452	17.547
2.0987e-05	217.86	0.9241	17.909
2.0987e-05	221.43	0.92367	18.263
2.0987e-05	225	0.92323	18.611
2.0987e-05	228.57	0.92279	18.952
2.0987e-05	232.14	0.92234	19.287
2.0987e-05	235.71	0.92188	19.615
2.0987e-05	239.29	0.92142	19.938
2.0987e-05	242.86	0.92095	20.254
2.0987e-05	246.43	0.92047	20.564
2.0987e-05	250	0.91999	20.869
2.0987e-05	253.57	0.9195	21.168
2.0987e-05	257.14	0.919	21.462
2.0987e-05	260.71	0.9185	21.751
2.0987e-05	264.29	0.918	22.034
2.0987e-05	267.86	0.91748	22.313
2.0987e-05	271.43	0.91696	22.587
2.0987e-05	275	0.91644	22.856
2.7046e-05	100	0.93304	3.7223
2.7046e-05	103.57	0.93294	4.0915
2.7046e-05	107.14	0.93282	4.4769
2.7046e-05	110.71	0.9327	4.8775
2.7046e-05	114.29	0.93256	5.292
2.7046e-05	117.86	0.93241	5.7189
2.7046e-05	121.43	0.93226	6.1569
2.7046e-05	125	0.93209	6.6043
2.7046e-05	128.57	0.93191	7.0598
2.7046e-05	132.14	0.93172	7.5217
2.7046e-05	135.71	0.93152	7.9885
2.7046e-05	139.29	0.93131	8.4589
2.7046e-05	142.86	0.93109	8.9314
2.7046e-05	146.43	0.93085	9.4048
2.7046e-05	150	0.93061	9.8777
2.7046e-05	153.57	0.93035	10.349
2.7046e-05	157.14	0.93009	10.818
2.7046e-05	160.71	0.92981	11.284
2.7046e-05	164.29	0.92952	11.746
2.7046e-05	167.86	0.92923	12.202
2.7046e-05	171.43	0.92892	12.654
2.7046e-05	175	0.9286	13.1
2.7046e-05	178.57	0.92828	13.539
2.7046e-05	182.14	0.92794	13.972
2.7046e-05	185.71	0.9276	14.398
2.7046e-05	189.29	0.92724	14.817
2.7046e-05	192.86	0.92688	15.228
2.7046e-05	196.43	0.92651	15.633
2.7046e-05	200	0.92612	16.03
2.7046e-05	203.57	0.92574	16.42
2.7046e-05	207.14	0.92534	16.803
2.7046e-05	210.71	0.92493	17.178
2.7046e-05	214.29	0.92452	17.547
2.7046e-05	217.86	0.9241	17.908
2.7046e-05	221.43	0.92367	18.263
2.7046e-05	225	0.92323	18.611
2.7046e-05	228.57	0.92279	18.952
2.7046e-05	232.14	0.92234	19.287
2.7046e-05	235.71	0.92188	19.615
2.7046e-05	239.29	0.92142	19.938
2.7046e-05	242.86	0.92095	20.254
2.7046e-05	246.43	0.92047	20.564
2.7046e-05	250	0.91999	20.869
2.7046e-05	253.57	0.9195	21.168
2.7046e-05	257.14	0.919	21.462
2.7046e-05	260.71	0.9185	21.751
2.7046e-05	264.29	0.918	22.034
2.7046e-05	267.86	0.91748	22.313
2.7046e-05	271.43	0.91697	22.587
2.7046e-05	275	0.91644	22.856
3.4855e-05	100	0.93304	3.7223
3.4855e-05	103.57	0.93294	4.0914
3.4855e-05	107.14	0.93282	4.4769
3.4855e-05	110.71	0.9327	4.8775
3.4855e-05	114.29	0.93256	5.2919
3.4855e-05	117.86	0.93241	5.7188
3.4855e-05	121.43	0.93226	6.1568
3.4855e-05	125	0.93209	6.6042
3.4855e-05	128.57	0.93191	7.0597
3.4855e-05	132.14	0.93172	7.5216
3.4855e-05	135.71	0.93152	7.9884
3.4855e-05	139.29	0.93131	8.4588
3.4855e-05	142.86	0.93109	8.9313
3.4855e-05	146.43	0.93085	9.4047
3.4855e-05	150	0.93061	9.8776
3.4855e-05	153.57	0.93035	10.349
3.4855e-05	157.14	0.93009	10.818
3.4855e-05	160.71	0.92981	11.284
3.4855e-05	164.29	0.92952	11.746
3.4855e-05	167.86	0.92923	12.202
3.4855e-05	171.43	0.92892	12.654
3.4855e-05	175	0.9286	13.099
3.4855e-05	178.57	0.92828	13.539
3.4855e-05	182.14	0.92794	13.972
3.4855e-05	185.71	0.9276	14.397
3.4855e-05	189.29	0.92724	14.816
3.4855e-05	192.86	0.92688	15.228
3.4855e-05	196.43	0.92651	15.633
3.4855e-05	200	0.92613	16.03
3.4855e-05	203.57	0.92574	16.42
3.4855e-05	207.14	0.92534	16.803
3.4855e-05	210.71	0.92493	17.178
3.4855e-05	214.29	0.92452	17.547
3.4855e-05	217.86	0.9241	17.908
3.4855e-05	221.43	0.92367	18.263
3.4855e-05	225	0.92323	18.611
3.4855e-05	228.57	0.92279	18.952
3.4855e-05	232.14	0.92234	19.287
3.4855e-05	235.71	0.92188	19.615
3.4855e-05	239.29	0.92142	19.937
3.4855e-05	242.86	0.92095	20.254
3.4855e-05	246.43	0.92047	20.564
3.4855e-05	250	0.91999	20.869
3.4855e-05	253.57	0.9195	21.168
3.4855e-05	257.14	0.919	21.462
3.4855e-05	260.71	0.9185	21.75
3.4855e-05	264.29	0.918	22.034
3.4855e-05	267.86	0.91748	22.313
3.4855e-05	271.43	0.91697	22.587
3.4855e-05	275	0.91644	22.856
4.4919e-05	100	0.93304	3.7222
4.4919e-05	103.57	0.93294	4.0914
4.4919e-05	107.14	0.93282	4.4768
4.4919e-05	110.71	0.9327	4.8774
4.4919e-05	114.29	0.93256	5.2918
4.4919e-05	117.86	0.93241	5.7188
4.4919e-05	121.43	0.93226	6.1567
4.4919e-05	125	0.93209	6.6041
4.4919e-05	128.57	0.93191	7.0596
4.4919e-05	132.14	0.93172	7.5215
4.4919e-05	135.71	0.93152	7.9883
4.4919e-05	139.29	0.93131	8.4587
4.4919e-05	142.86	0.93109	8.9312
4.4919e-05	146.43	0.93085	9.4045
4.4919e-05	150	0.93061	9.8775
4.4919e-05	153.57	0.93035	10.349
4.4919e-05	157.14	0.93009	10.818
4.4919e-05	160.71	0.92981	11.284
4.4919e-05	164.29	0.92953	11.745
4.4919e-05	167.86	0.92923	12.202
4.4919e-05	171.43	0.92892	12.654
4.4919e-05	175	0.9286	13.099
4.4919e-05	178.57	0.92828	13.539
4.4919e-05	182.14	0.92794	13.971
4.4919e-05	185.71	0.9276	14.397
4.4919e-05	189.29	0.92724	14.816
4.4919e-05	192.86	0.92688	15.228
4.4919e-05	196.43	0.92651	15.632
4.4919e-05	200	0.92613	16.03
4.4919e-05	203.57	0.92574	16.42
4.4919e-05	207.14	0.92534	16.803
4.4919e-05	210.71	0.92493	17.178
4.4919e-05	214.29	0.92452	17.547
4.4919e-05	217.86	0.9241	17.908
4.4919e-05	221.43	0.92367	18.263
4.4919e-05	225	0.92323	18.61
4.4919e-05	228.57	0.92279	18.952
4.4919e-05	232.14	0.92234	19.286
4.4919e-05	235.71	0.92188	19.615
4.4919e-05	239.29	0.92142	19.937
4.4919e-05	242.86	0.92095	20.253
4.4919e-05	246.43	0.92047	20.564
4.4919e-05	250	0.91999	20.869
4.4919e-05	253.57	0.9195	21.168
4.4919e-05	257.14	0.91901	21.462
4.4919e-05	260.71	0.9185	21.75
4.4919e-05	264.29	0.918	22.034
4.4919e-05	267.86	0.91749	22.312
4.4919e-05	271.43	0.91697	22.586
4.4919e-05	275	0.91644	22.856
5.7889e-05	100	0.93304	3.7221
5.7889e-05	103.57	0.93294	4.0913
5.7889e-05	107.14	0.93282	4.4767
5.7889e-05	110.71	0.9327	4.8773
5.7889e-05	114.29	0.93256	5.2917
5.7889e-05	117.86	0.93242	5.7187
5.7889e-05	121.43	0.93226	6.1566
5.7889e-05	125	0.93209	6.604
5.7889e-05	128.57	0.93191	7.0595
5.7889e-05	132.14	0.93172	7.5213
5.7889e-05	135.71	0.93152	7.9882
5.7889e-05	139.29	0.93131	8.4585
5.7889e-05	142.86	0.93109	8.931
5.7889e-05	146.43	0.93085	9.4044
5.7889e-05	150	0.93061	9.8773
5.7889e-05	153.57	0.93036	10.349
5.7889e-05	157.14	0.93009	10.818
5.7889e-05	160.71	0.92981	11.284
5.7889e-05	164.29	0.92953	11.745
5.7889e-05	167.86	0.92923	12.202
5.7889e-05	171.43	0.92892	12.653
5.7889e-05	175	0.92861	13.099
5.7889e-05	178.57	0.92828	13.538
5.7889e-05	182.14	0.92794	13.971
5.7889e-05	185.71	0.9276	14.397
5.7889e-05	189.29	0.92724	14.816
5.7889e-05	192.86	0.92688	15.228
5.7889e-05	196.43	0.92651	15.632
5.7889e-05	200	0.92613	16.029
5.7889e-05	203.57	0.92574	16.42
5.7889e-05	207.14	0.92534	16.802
5.7889e-05	210.71	0.92494	17.178
5.7889e-05	214.29	0.92452	17.546
5.7889e-05	217.86	0.9241	17.908
5.7889e-05	221.43	0.92367	18.262
5.7889e-05	225	0.92324	18.61
5.7889e-05	228.57	0.92279	18.951
5.7889e-05	232.14	0.92234	19.286
5.7889e-05	235.71	0.92189	19.615
5.7889e-05	239.29	0.92142	19.937
5.7889e-05	242.86	0.92095	20.253
5.7889e-05	246.43	0.92047	20.563
5.7889e-05	250	0.91999	20.868
5.7889e-05	253.57	0.9195	21.167
5.7889e-05	257.14	0.91901	21.461
5.7889e-05	260.71	0.91851	21.75
5.7889e-05	264.29	0.918	22.033
5.7889e-05	267.86	0.91749	22.312
5.7889e-05	271.43	0.91697	22.586
5.7889e-05	275	0.91645	22.855
7.4603e-05	100	0.93305	3.722
7.4603e-05	103.57	0.93294	4.0912
7.4603e-05	107.14	0.93283	4.4766
7.4603e-05	110.71	0.9327	4.8772
7.4603e-05	114.29	0.93256	5.2916
7.4603e-05	117.86	0.93242	5.7185
7.4603e-05	121.43	0.93226	6.1564
7.4603e-05	125	0.93209	6.6039
7.4603e-05	128.57	0.93191	7.0593
7.4603e-05	132.14	0.93172	7.5212
7.4603e-05	135.71	0.93152	7.988
7.4603e-05	139.29	0.93131	8.4583
7.4603e-05	142.86	0.93109	8.9308
7.4603e-05	146.43	0.93086	9.4041
7.4603e-05	150	0.93061	9.8771
7.4603e-05	153.57	0.93036	10.349
7.4603e-05	157.14	0.93009	10.818
7.4603e-05	160.71	0.92981	11.283
7.4603e-05	164.29	0.92953	11.745
7.4603e-05	167.86	0.92923	12.202
7.4603e-05	171.43	0.92892	12.653
7.4603e-05	175	0.92861	13.099
7.4603e-05	178.57	0.92828	13.538
7.4603e-05	182.14	0.92795	13.971
7.4603e-05	185.71	0.9276	14.397
7.4603e-05	189.29	0.92725	14.816
7.4603e-05	192.86	0.92688	15.227
7.4603e-05	196.43	0.92651	15.632
7.4603e-05	200	0.92613	16.029
7.4603e-05	203.57	0.92574	16.419
7.4603e-05	207.14	0.92534	16.802
7.4603e-05	210.71	0.92494	17.177
7.4603e-05	214.29	0.92452	17.546
7.4603e-05	217.86	0.9241	17.907
7.4603e-05	221.43	0.92367	18.262
7.4603e-05	225	0.92324	18.61
7.4603e-05	228.57	0.92279	18.951
7.4603e-05	232.14	0.92234	19.286
7.4603e-05	235.71	0.92189	19.614
7.4603e-05	239.29	0.92142	19.936
7.4603e-05	242.86	0.92095	20.253
7.4603e-05	246.43	0.92048	20.563
7.4603e-05	250	0.91999	20.868
7.4603e-05	253.57	0.9195	21.167
7.4603e-05	257.14	0.91901	21.461
7.4603e-05	260.71	0.91851	21.749
7.4603e-05	264.29	0.918	22.033
7.4603e-05	267.86	0.91749	22.312
7.4603e-05	271.43	0.91697	22.585
7.4603e-05	275	0.91645	22.855
9.6143e-05	100	0.93305	3.7219
9.6143e-05	103.57	0.93294	4.0911
9.6143e-05	107.14	0.93283	4.4765
9.6143e-05	110.71	0.9327	4.877
9.6143e-05	114.29	0.93257	5.2915
9.6143e-05	117.86	0.93242	5.7183
9.6143e-05	121.43	0.93226	6.1563
9.6143e-05	125	0.93209	6.6037
9.6143e-05	128.57	0.93192	7.0591
9.6143e-05	132.14	0.93173	7.5209
9.6143e-05	135.71	0.93153	7.9878
9.6143e-05	139.29	0.93131	8.4581
9.6143e-05	142.86	0.93109	8.9306
9.6143e-05	146.43	0.93086	9.4039
9.6143e-05	150	0.93061	9.8768
9.6143e-05	153.57	0.93036	10.348
9.6143e-05	157.14	0.93009	10.817
9.6143e-05	160.71	0.92982	11.283
9.6143e-05	164.29	0.92953	11.745
9.6143e-05	167.86	0.92923	12.201
9.6143e-05	171.43	0.92893	12.653
9.6143e-05	175	0.92861	13.098
9.6143e-05	178.57	0.92828	13.538
9.6143e-05	182.14	0.92795	13.97
9.6143e-05	185.71	0.9276	14.396
9.6143e-05	189.29	0.92725	14.815
9.6143e-05	192.86	0.92688	15.227
9.6143e-05	196.43	0.92651	15.631
9.6143e-05	200	0.92613	16.029
9.6143e-05	203.57	0.92574	16.419
9.6143e-05	207.14	0.92534	16.801
9.6143e-05	210.71	0.92494	17.177
9.6143e-05	214.29	0.92453	17.545
9.6143e-05	217.86	0.9241	17.907
9.6143e-05	221.43	0.92368	18.261
9.6143e-05	225	0.92324	18.609
9.6143e-05	228.57	0.9228	18.951
9.6143e-05	232.14	0.92235	19.285
9.6143e-05	235.71	0.92189	19.614
9.6143e-05	239.29	0.92143	19.936
9.6143e-05	242.86	0.92096	20.252
9.6143e-05	246.43	0.92048	20.563
9.6143e-05	250	0.92	20.867
9.6143e-05	253.57	0.91951	21.166
9.6143e-05	257.14	0.91901	21.46
9.6143e-05	260.71	0.91851	21.749
9.6143e-05	264.29	0.918	22.032
9.6143e-05	267.86	0.91749	22.311
9.6143e-05	271.43	0.91697	22.585
9.6143e-05	275	0.91645	22.854
0.0001239	100	0.93305	3.7218
0.0001239	103.57	0.93294	4.0909
0.0001239	107.14	0.93283	4.4763
0.0001239	110.71	0.9327	4.8769
0.0001239	114.29	0.93257	5.2912
0.0001239	117.86	0.93242	5.7181
0.0001239	121.43	0.93226	6.156
0.0001239	125	0.9321	6.6034
0.0001239	128.57	0.93192	7.0588
0.0001239	132.14	0.93173	7.5207
0.0001239	135.71	0.93153	7.9875
0.0001239	139.29	0.93132	8.4578
0.0001239	142.86	0.93109	8.9302
0.0001239	146.43	0.93086	9.4035
0.0001239	150	0.93062	9.8764
0.0001239	153.57	0.93036	10.348
0.0001239	157.14	0.9301	10.817
0.0001239	160.71	0.92982	11.283
0.0001239	164.29	0.92953	11.744
0.0001239	167.86	0.92924	12.201
0.0001239	171.43	0.92893	12.652
0.0001239	175	0.92861	13.098
0.0001239	178.57	0.92829	13.537
0.0001239	182.14	0.92795	13.97
0.0001239	185.71	0.9276	14.396
0.0001239	189.29	0.92725	14.815
0.0001239	192.86	0.92689	15.226
0.0001239	196.43	0.92651	15.631
0.0001239	200	0.92613	16.028
0.0001239	203.57	0.92574	16.418
0.0001239	207.14	0.92535	16.801
0.0001239	210.71	0.92494	17.176
0.0001239	214.29	0.92453	17.545
0.0001239	217.86	0.92411	17.906
0.0001239	221.43	0.92368	18.261
0.0001239	225	0.92324	18.609
0.0001239	228.57	0.9228	18.95
0.0001239	232.14	0.92235	19.285
0.0001239	235.71	0.92189	19.613
0.0001239	239.29	0.92143	19.935
0.0001239	242.86	0.92096	20.251
0.0001239	246.43	0.92048	20.562
0.0001239	250	0.92	20.867
0.0001239	253.57	0.91951	21.166
0.0001239	257.14	0.91901	21.46
0.0001239	260.71	0.91851	21.748
0.0001239	264.29	0.91801	22.032
0.0001239	267.86	0.91749	22.31
0.0001239	271.43	0.91698	22.584
0.0001239	275	0.91645	22.853
0.00015968	100	0.93305	3.7216
0.00015968	103.57	0.93295	4.0907
0.00015968	107.14	0.93283	4.4761
0.00015968	110.71	0.93271	4.8766
0.00015968	114.29	0.93257	5.291
0.00015968	117.86	0.93243	5.7178
0.00015968	121.43	0.93227	6.1557
0.00015968	125	0.9321	6.6031
0.00015968	128.57	0.93192	7.0585
0.00015968	132.14	0.93173	7.5203
0.00015968	135.71	0.93153	7.9871
0.00015968	139.29	0.93132	8.4574
0.00015968	142.86	0.9311	8.9298
0.00015968	146.43	0.93086	9.4031
0.00015968	150	0.93062	9.876
0.00015968	153.57	0.93036	10.347
0.00015968	157.14	0.9301	10.816
0.00015968	160.71	0.92982	11.282
0.00015968	164.29	0.92954	11.744
0.00015968	167.86	0.92924	12.2
0.00015968	171.43	0.92893	12.652
0.00015968	175	0.92862	13.097
0.00015968	178.57	0.92829	13.537
0.00015968	182.14	0.92795	13.969
0.00015968	185.71	0.92761	14.395
0.00015968	189.29	0.92725	14.814
0.00015968	192.86	0.92689	15.226
0.00015968	196.43	0.92652	15.63
0.00015968	200	0.92614	16.027
0.00015968	203.57	0.92575	16.417
0.00015968	207.14	0.92535	16.8
0.00015968	210.71	0.92495	17.176
0.00015968	214.29	0.92453	17.544
0.00015968	217.86	0.92411	17.906
0.00015968	221.43	0.92368	18.26
0.00015968	225	0.92325	18.608
0.00015968	228.57	0.9228	18.949
0.00015968	232.14	0.92235	19.284
0.00015968	235.71	0.9219	19.612
0.00015968	239.29	0.92143	19.934
0.00015968	242.86	0.92096	20.251
0.00015968	246.43	0.92049	20.561
0.00015968	250	0.92	20.866
0.00015968	253.57	0.91951	21.165
0.00015968	257.14	0.91902	21.459
0.00015968	260.71	0.91852	21.747
0.00015968	264.29	0.91801	22.031
0.00015968	267.86	0.9175	22.309
0.00015968	271.43	0.91698	22.583
0.00015968	275	0.91646	22.852
0.00020578	100	0.93306	3.7213
0.00020578	103.57	0.93295	4.0904
0.00020578	107.14	0.93284	4.4758
0.00020578	110.71	0.93271	4.8763
0.00020578	114.29	0.93258	5.2906
0.00020578	117.86	0.93243	5.7175
0.00020578	121.43	0.93227	6.1553
0.00020578	125	0.9321	6.6027
0.00020578	128.57	0.93193	7.058
0.00020578	132.14	0.93174	7.5198
0.00020578	135.71	0.93154	7.9866
0.00020578	139.29	0.93132	8.4568
0.00020578	142.86	0.9311	8.9292
0.00020578	146.43	0.93087	9.4025
0.00020578	150	0.93062	9.8754
0.00020578	153.57	0.93037	10.347
0.00020578	157.14	0.9301	10.816
0.00020578	160.71	0.92983	11.281
0.00020578	164.29	0.92954	11.743
0.00020578	167.86	0.92924	12.2
0.00020578	171.43	0.92894	12.651
0.00020578	175	0.92862	13.097
0.00020578	178.57	0.92829	13.536
0.00020578	182.14	0.92796	13.968
0.00020578	185.71	0.92761	14.394
0.00020578	189.29	0.92726	14.813
0.00020578	192.86	0.92689	15.225
0.00020578	196.43	0.92652	15.629
0.00020578	200	0.92614	16.027
0.00020578	203.57	0.92575	16.416
0.00020578	207.14	0.92536	16.799
0.00020578	210.71	0.92495	17.175
0.00020578	214.29	0.92454	17.543
0.00020578	217.86	0.92412	17.904
0.00020578	221.43	0.92369	18.259
0.00020578	225	0.92325	18.607
0.00020578	228.57	0.92281	18.948
0.00020578	232.14	0.92236	19.283
0.00020578	235.71	0.9219	19.611
0.00020578	239.29	0.92144	19.933
0.00020578	242.86	0.92097	20.249
0.00020578	246.43	0.92049	20.56
0.00020578	250	0.92001	20.865
0.00020578	253.57	0.91952	21.164
0.00020578	257.14	0.91902	21.457
0.00020578	260.71	0.91852	21.746
0.00020578	264.29	0.91802	22.03
0.00020578	267.86	0.9175	22.308
0.00020578	271.43	0.91698	22.582
0.00020578	275	0.91646	22.851
0.00026519	100	0.93306	3.721
0.00026519	103.57	0.93296	4.0901
0.00026519	107.14	0.93284	4.4754
0.00026519	110.71	0.93272	4.8759
0.00026519	114.29	0.93258	5.2902
0.00026519	117.86	0.93243	5.717
0.00026519	121.43	0.93228	6.1548
0.00026519	125	0.93211	6.6021
0.00026519	128.57	0.93193	7.0574
0.00026519	132.14	0.93174	7.5192
0.00026519	135.71	0.93154	7.9859
0.00026519	139.29	0.93133	8.4561
0.00026519	142.86	0.93111	8.9285
0.00026519	146.43	0.93087	9.4017
0.00026519	150	0.93063	9.8746
0.00026519	153.57	0.93037	10.346
0.00026519	157.14	0.93011	10.815
0.00026519	160.71	0.92983	11.281
0.00026519	164.29	0.92955	11.742
0.00026519	167.86	0.92925	12.199
0.00026519	171.43	0.92894	12.65
0.00026519	175	0.92863	13.095
0.00026519	178.57	0.9283	13.535
0.00026519	182.14	0.92796	13.967
0.00026519	185.71	0.92762	14.393
0.00026519	189.29	0.92726	14.812
0.00026519	192.86	0.9269	15.224
0.00026519	196.43	0.92653	15.628
0.00026519	200	0.92615	16.025
0.00026519	203.57	0.92576	16.415
0.00026519	207.14	0.92536	16.798
0.00026519	210.71	0.92496	17.173
0.00026519	214.29	0.92454	17.542
0.00026519	217.86	0.92412	17.903
0.00026519	221.43	0.92369	18.258
0.00026519	225	0.92326	18.605
0.00026519	228.57	0.92281	18.947
0.00026519	232.14	0.92236	19.281
0.00026519	235.71	0.92191	19.61
0.00026519	239.29	0.92144	19.932
0.00026519	242.86	0.92097	20.248
0.00026519	246.43	0.9205	20.558
0.00026519	250	0.92001	20.863
0.00026519	253.57	0.91952	21.162
0.00026519	257.14	0.91903	21.456
0.00026519	260.71	0.91853	21.745
0.00026519	264.29	0.91802	22.028
0.00026519	267.86	0.91751	22.307
0.00026519	271.43	0.91699	22.58
0.00026519	275	0.91647	22.85
0.00034176	100	0.93307	3.7206
0.00034176	103.57	0.93296	4.0896
0.00034176	107.14	0.93285	4.4749
0.00034176	110.71	0.93272	4.8753
0.00034176	114.29	0.93259	5.2896
0.00034176	117.86	0.93244	5.7164
0.00034176	121.43	0.93228	6.1541
0.00034176	125	0.93212	6.6014
0.00034176	128.57	0.93194	7.0567
0.00034176	132.14	0.93175	7.5184
0.00034176	135.71	0.93155	7.9851
0.00034176	139.29	0.93134	8.4553
0.00034176	142.86	0.93111	8.9276
0.00034176	146.43	0.93088	9.4008
0.00034176	150	0.93064	9.8736
0.00034176	153.57	0.93038	10.345
0.00034176	157.14	0.93012	10.814
0.00034176	160.71	0.92984	11.279
0.00034176	164.29	0.92955	11.741
0.00034176	167.86	0.92926	12.197
0.00034176	171.43	0.92895	12.649
0.00034176	175	0.92863	13.094
0.00034176	178.57	0.92831	13.533
0.00034176	182.14	0.92797	13.966
0.00034176	185.71	0.92763	14.392
0.00034176	189.29	0.92727	14.811
0.00034176	192.86	0.92691	15.222
0.00034176	196.43	0.92654	15.627
0.00034176	200	0.92616	16.024
0.00034176	203.57	0.92577	16.414
0.00034176	207.14	0.92537	16.796
0.00034176	210.71	0.92496	17.172
0.00034176	214.29	0.92455	17.54
0.00034176	217.86	0.92413	17.901
0.00034176	221.43	0.9237	18.256
0.00034176	225	0.92327	18.604
0.00034176	228.57	0.92282	18.945
0.00034176	232.14	0.92237	19.28
0.00034176	235.71	0.92192	19.608
0.00034176	239.29	0.92145	19.93
0.00034176	242.86	0.92098	20.246
0.00034176	246.43	0.9205	20.556
0.00034176	250	0.92002	20.861
0.00034176	253.57	0.91953	21.16
0.00034176	257.14	0.91904	21.454
0.00034176	260.71	0.91854	21.743
0.00034176	264.29	0.91803	22.026
0.00034176	267.86	0.91752	22.305
0.00034176	271.43	0.917	22.578
0.00034176	275	0.91648	22.848
0.00044044	100	0.93308	3.72
0.00044044	103.57	0.93297	4.089
0.00044044	107.14	0.93286	4.4743
0.00044044	110.71	0.93273	4.8746
0.00044044	114.29	0.9326	5.2889
0.00044044	117.86	0.93245	5.7156
0.00044044	121.43	0.93229	6.1533
0.00044044	125	0.93213	6.6005
0.00044044	128.57	0.93195	7.0557
0.00044044	132.14	0.93176	7.5174
0.00044044	135.71	0.93156	7.984
0.00044044	139.29	0.93135	8.4541
0.00044044	142.86	0.93112	8.9264
0.00044044	146.43	0.93089	9.3995
0.00044044	150	0.93065	9.8722
0.00044044	153.57	0.93039	10.344
0.00044044	157.14	0.93013	10.812
0.00044044	160.71	0.92985	11.278
0.00044044	164.29	0.92956	11.739
0.00044044	167.86	0.92927	12.196
0.00044044	171.43	0.92896	12.647
0.00044044	175	0.92864	13.093
0.00044044	178.57	0.92832	13.532
0.00044044	182.14	0.92798	13.964
0.00044044	185.71	0.92764	14.39
0.00044044	189.29	0.92728	14.809
0.00044044	192.86	0.92692	15.22
0.00044044	196.43	0.92655	15.625
0.00044044	200	0.92616	16.022
0.00044044	203.57	0.92578	16.412
0.00044044	207.14	0.92538	16.794
0.00044044	210.71	0.92497	17.17
0.00044044	214.29	0.92456	17.538
0.00044044	217.86	0.92414	17.899
0.00044044	221.43	0.92371	18.254
0.00044044	225	0.92327	18.601
0.00044044	228.57	0.92283	18.943
0.00044044	232.14	0.92238	19.277
0.00044044	235.71	0.92193	19.606
0.00044044	239.29	0.92146	19.928
0.00044044	242.86	0.92099	20.244
0.00044044	246.43	0.92051	20.554
0.00044044	250	0.92003	20.859
0.00044044	253.57	0.91954	21.158
0.00044044	257.14	0.91905	21.452
0.00044044	260.71	0.91855	21.74
0.00044044	264.29	0.91804	22.024
0.00044044	267.86	0.91753	22.302
0.00044044	271.43	0.91701	22.576
0.00044044	275	0.91649	22.845
0.00056761	100	0.93309	3.7193
0.00056761	103.57	0.93298	4.0883
0.00056761	107.14	0.93287	4.4734
0.00056761	110.71	0.93274	4.8737
0.00056761	114.29	0.93261	5.2879
0.00056761	117.86	0.93246	5.7145
0.00056761	121.43	0.9323	6.1522
0.00056761	125	0.93214	6.5993
0.00056761	128.57	0.93196	7.0545
0.00056761	132.14	0.93177	7.516
0.00056761	135.71	0.93157	7.9826
0.00056761	139.29	0.93136	8.4527
0.00056761	142.86	0.93114	8.9249
0.00056761	146.43	0.9309	9.3979
0.00056761	150	0.93066	9.8706
0.00056761	153.57	0.9304	10.342
0.00056761	157.14	0.93014	10.811
0.00056761	160.71	0.92986	11.276
0.00056761	164.29	0.92957	11.737
0.00056761	167.86	0.92928	12.194
0.00056761	171.43	0.92897	12.645
0.00056761	175	0.92865	13.09
0.00056761	178.57	0.92833	13.529
0.00056761	182.14	0.92799	13.962
0.00056761	185.71	0.92765	14.388
0.00056761	189.29	0.92729	14.806
0.00056761	192.86	0.92693	15.218
0.00056761	196.43	0.92656	15.622
0.00056761	200	0.92618	16.019
0.00056761	203.57	0.92579	16.409
0.00056761	207.14	0.92539	16.792
0.00056761	210.71	0.92499	17.167
0.00056761	214.29	0.92457	17.535
0.00056761	217.86	0.92415	17.896
0.00056761	221.43	0.92372	18.251
0.00056761	225	0.92329	18.599
0.00056761	228.57	0.92284	18.94
0.00056761	232.14	0.9224	19.274
0.00056761	235.71	0.92194	19.602
0.00056761	239.29	0.92147	19.925
0.00056761	242.86	0.921	20.241
0.00056761	246.43	0.92053	20.551
0.00056761	250	0.92005	20.856
0.00056761	253.57	0.91956	21.155
0.00056761	257.14	0.91906	21.448
0.00056761	260.71	0.91856	21.737
0.00056761	264.29	0.91805	22.02
0.00056761	267.86	0.91754	22.299
0.00056761	271.43	0.91702	22.573
0.00056761	275	0.9165	22.842
0.0007315	100	0.93311	3.7184
0.0007315	103.57	0.933	4.0873
0.0007315	107.14	0.93288	4.4724
0.0007315	110.71	0.93276	4.8726
0.0007315	114.29	0.93262	5.2867
0.0007315	117.86	0.93248	5.7132
0.0007315	121.43	0.93232	6.1507
0.0007315	125	0.93215	6.5978
0.0007315	128.57	0.93197	7.0528
0.0007315	132.14	0.93178	7.5143
0.0007315	135.71	0.93158	7.9808
0.0007315	139.29	0.93137	8.4508
0.0007315	142.86	0.93115	8.9229
0.0007315	146.43	0.93092	9.3958
0.0007315	150	0.93067	9.8684
0.0007315	153.57	0.93042	10.34
0.0007315	157.14	0.93015	10.808
0.0007315	160.71	0.92988	11.274
0.0007315	164.29	0.92959	11.735
0.0007315	167.86	0.92929	12.191
0.0007315	171.43	0.92899	12.642
0.0007315	175	0.92867	13.088
0.0007315	178.57	0.92834	13.527
0.0007315	182.14	0.92801	13.959
0.0007315	185.71	0.92766	14.385
0.0007315	189.29	0.92731	14.803
0.0007315	192.86	0.92695	15.215
0.0007315	196.43	0.92657	15.619
0.0007315	200	0.92619	16.016
0.0007315	203.57	0.9258	16.406
0.0007315	207.14	0.92541	16.788
0.0007315	210.71	0.925	17.163
0.0007315	214.29	0.92459	17.532
0.0007315	217.86	0.92417	17.893
0.0007315	221.43	0.92374	18.247
0.0007315	225	0.9233	18.595
0.0007315	228.57	0.92286	18.936
0.0007315	232.14	0.92241	19.27
0.0007315	235.71	0.92196	19.599
0.0007315	239.29	0.92149	19.921
0.0007315	242.86	0.92102	20.237
0.0007315	246.43	0.92055	20.547
0.0007315	250	0.92006	20.851
0.0007315	253.57	0.91957	21.15
0.0007315	257.14	0.91908	21.444
0.0007315	260.71	0.91858	21.733
0.0007315	264.29	0.91807	22.016
0.0007315	267.86	0.91756	22.295
0.0007315	271.43	0.91704	22.568
0.0007315	275	0.91652	22.837
0.0009427	100	0.93312	3.7173
0.0009427	103.57	0.93302	4.086
0.0009427	107.14	0.9329	4.471
0.0009427	110.71	0.93278	4.8711
0.0009427	114.29	0.93264	5.2851
0.0009427	117.86	0.9325	5.7115
0.0009427	121.43	0.93234	6.1489
0.0009427	125	0.93217	6.5959
0.0009427	128.57	0.93199	7.0508
0.0009427	132.14	0.9318	7.5121
0.0009427	135.71	0.9316	7.9785
0.0009427	139.29	0.93139	8.4483
0.0009427	142.86	0.93117	8.9203
0.0009427	146.43	0.93094	9.3931
0.0009427	150	0.93069	9.8656
0.0009427	153.57	0.93044	10.337
0.0009427	157.14	0.93017	10.805
0.0009427	160.71	0.9299	11.27
0.0009427	164.29	0.92961	11.732
0.0009427	167.86	0.92931	12.188
0.0009427	171.43	0.92901	12.639
0.0009427	175	0.92869	13.084
0.0009427	178.57	0.92836	13.523
0.0009427	182.14	0.92803	13.955
0.0009427	185.71	0.92768	14.381
0.0009427	189.29	0.92733	14.799
0.0009427	192.86	0.92697	15.211
0.0009427	196.43	0.92659	15.615
0.0009427	200	0.92621	16.012
0.0009427	203.57	0.92583	16.401
0.0009427	207.14	0.92543	16.784
0.0009427	210.71	0.92502	17.159
0.0009427	214.29	0.92461	17.527
0.0009427	217.86	0.92419	17.888
0.0009427	221.43	0.92376	18.242
0.0009427	225	0.92333	18.59
0.0009427	228.57	0.92288	18.931
0.0009427	232.14	0.92243	19.265
0.0009427	235.71	0.92198	19.594
0.0009427	239.29	0.92151	19.916
0.0009427	242.86	0.92104	20.232
0.0009427	246.43	0.92057	20.542
0.0009427	250	0.92008	20.846
0.0009427	253.57	0.9196	21.145
0.0009427	257.14	0.9191	21.439
0.0009427	260.71	0.9186	21.727
0.0009427	264.29	0.91809	22.011
0.0009427	267.86	0.91758	22.289
0.0009427	271.43	0.91706	22.563
0.0009427	275	0.91654	22.832
0.0012149	100	0.93315	3.7158
0.0012149	103.57	0.93304	4.0844
0.0012149	107.14	0.93293	4.4692
0.0012149	110.71	0.9328	4.8692
0.0012149	114.29	0.93267	5.283
0.0012149	117.86	0.93252	5.7093
0.0012149	121.43	0.93236	6.1466
0.0012149	125	0.9322	6.5933
0.0012149	128.57	0.93202	7.0481
0.0012149	132.14	0.93183	7.5093
0.0012149	135.71	0.93163	7.9755
0.0012149	139.29	0.93142	8.4452
0.0012149	142.86	0.93119	8.917
0.0012149	146.43	0.93096	9.3897
0.0012149	150	0.93072	9.862
0.0012149	153.57	0.93046	10.333
0.0012149	157.14	0.9302	10.801
0.0012149	160.71	0.92992	11.266
0.0012149	164.29	0.92964	11.727
0.0012149	167.86	0.92934	12.183
0.0012149	171.43	0.92903	12.634
0.0012149	175	0.92872	13.079
0.0012149	178.57	0.92839	13.518
0.0012149	182.14	0.92805	13.95
0.0012149	185.71	0.92771	14.376
0.0012149	189.29	0.92736	14.794
0.0012149	192.86	0.92699	15.205
0.0012149	196.43	0.92662	15.609
0.0012149	200	0.92624	16.006
0.0012149	203.57	0.92585	16.396
0.0012149	207.14	0.92546	16.778
0.0012149	210.71	0.92505	17.153
0.0012149	214.29	0.92464	17.521
0.0012149	217.86	0.92422	17.882
0.0012149	221.43	0.92379	18.236
0.0012149	225	0.92335	18.584
0.0012149	228.57	0.92291	18.925
0.0012149	232.14	0.92246	19.259
0.0012149	235.71	0.922	19.587
0.0012149	239.29	0.92154	19.909
0.0012149	242.86	0.92107	20.225
0.0012149	246.43	0.9206	20.535
0.0012149	250	0.92011	20.839
0.0012149	253.57	0.91962	21.138
0.0012149	257.14	0.91913	21.432
0.0012149	260.71	0.91863	21.72
0.0012149	264.29	0.91812	22.004
0.0012149	267.86	0.91761	22.282
0.0012149	271.43	0.91709	22.556
0.0012149	275	0.91657	22.825
0.0015657	100	0.93318	3.7139
0.0015657	103.57	0.93307	4.0823
0.0015657	107.14	0.93296	4.467
0.0015657	110.71	0.93283	4.8668
0.0015657	114.29	0.9327	5.2804
0.0015657	117.86	0.93255	5.7064
0.0015657	121.43	0.9324	6.1435
0.0015657	125	0.93223	6.5901
0.0015657	128.57	0.93205	7.0447
0.0015657	132.14	0.93186	7.5057
0.0015657	135.71	0.93166	7.9716
0.0015657	139.29	0.93145	8.4411
0.0015657	142.86	0.93123	8.9128
0.0015657	146.43	0.93099	9.3852
0.0015657	150	0.93075	9.8573
0.0015657	153.57	0.9305	10.328
0.0015657	157.14	0.93023	10.796
0.0015657	160.71	0.92995	11.261
0.0015657	164.29	0.92967	11.722
0.0015657	167.86	0.92937	12.178
0.0015657	171.43	0.92907	12.629
0.0015657	175	0.92875	13.073
0.0015657	178.57	0.92842	13.512
0.0015657	182.14	0.92809	13.944
0.0015657	185.71	0.92774	14.369
0.0015657	189.29	0.92739	14.787
0.0015657	192.86	0.92703	15.198
0.0015657	196.43	0.92666	15.602
0.0015657	200	0.92628	15.999
0.0015657	203.57	0.92589	16.388
0.0015657	207.14	0.92549	16.771
0.0015657	210.71	0.92508	17.146
0.0015657	214.29	0.92467	17.513
0.0015657	217.86	0.92425	17.874
0.0015657	221.43	0.92382	18.228
0.0015657	225	0.92339	18.576
0.0015657	228.57	0.92295	18.917
0.0015657	232.14	0.9225	19.251
0.0015657	235.71	0.92204	19.579
0.0015657	239.29	0.92158	19.901
0.0015657	242.86	0.92111	20.216
0.0015657	246.43	0.92063	20.526
0.0015657	250	0.92015	20.831
0.0015657	253.57	0.91966	21.13
0.0015657	257.14	0.91917	21.423
0.0015657	260.71	0.91867	21.711
0.0015657	264.29	0.91816	21.995
0.0015657	267.86	0.91765	22.273
0.0015657	271.43	0.91713	22.546
0.0015657	275	0.91661	22.815
0.0020177	100	0.93322	3.7114
0.0020177	103.57	0.93311	4.0796
0.0020177	107.14	0.933	4.464
0.0020177	110.71	0.93287	4.8636
0.0020177	114.29	0.93274	5.277
0.0020177	117.86	0.93259	5.7028
0.0020177	121.43	0.93244	6.1396
0.0020177	125	0.93227	6.5859
0.0020177	128.57	0.93209	7.0402
0.0020177	132.14	0.9319	7.501
0.0020177	135.71	0.9317	7.9667
0.0020177	139.29	0.93149	8.4359
0.0020177	142.86	0.93127	8.9073
0.0020177	146.43	0.93104	9.3795
0.0020177	150	0.93079	9.8513
0.0020177	153.57	0.93054	10.322
0.0020177	157.14	0.93027	10.79
0.0020177	160.71	0.93	11.254
0.0020177	164.29	0.92971	11.715
0.0020177	167.86	0.92941	12.171
0.0020177	171.43	0.92911	12.621
0.0020177	175	0.92879	13.066
0.0020177	178.57	0.92847	13.504
0.0020177	182.14	0.92813	13.936
0.0020177	185.71	0.92779	14.361
0.0020177	189.29	0.92743	14.779
0.0020177	192.86	0.92707	15.19
0.0020177	196.43	0.9267	15.593
0.0020177	200	0.92632	15.99
0.0020177	203.57	0.92593	16.379
0.0020177	207.14	0.92553	16.761
0.0020177	210.71	0.92513	17.136
0.0020177	214.29	0.92472	17.504
0.0020177	217.86	0.9243	17.864
0.0020177	221.43	0.92387	18.218
0.0020177	225	0.92343	18.565
0.0020177	228.57	0.92299	18.906
0.0020177	232.14	0.92254	19.24
0.0020177	235.71	0.92209	19.568
0.0020177	239.29	0.92162	19.89
0.0020177	242.86	0.92115	20.205
0.0020177	246.43	0.92068	20.515
0.0020177	250	0.9202	20.819
0.0020177	253.57	0.91971	21.118
0.0020177	257.14	0.91921	21.412
0.0020177	260.71	0.91871	21.7
0.0020177	264.29	0.91821	21.983
0.0020177	267.86	0.9177	22.261
0.0020177	271.43	0.91718	22.535
0.0020177	275	0.91666	22.803
0.0026003	100	0.93327	3.7082
0.0026003	103.57	0.93317	4.0761
0.0026003	107.14	0.93305	4.4603
0.0026003	110.71	0.93293	4.8595
0.0026003	114.29	0.93279	5.2726
0.0026003	117.86	0.93264	5.6981
0.0026003	121.43	0.93249	6.1346
0.0026003	125	0.93232	6.5805
0.0026003	128.57	0.93214	7.0345
0.0026003	132.14	0.93195	7.4949
0.0026003	135.71	0.93175	7.9603
0.0026003	139.29	0.93154	8.4292
0.0026003	142.86	0.93132	8.9002
0.0026003	146.43	0.93109	9.3721
0.0026003	150	0.93085	9.8436
0.0026003	153.57	0.93059	10.314
0.0026003	157.14	0.93033	10.781
0.0026003	160.71	0.93005	11.246
0.0026003	164.29	0.92977	11.706
0.0026003	167.86	0.92947	12.161
0.0026003	171.43	0.92916	12.611
0.0026003	175	0.92885	13.056
0.0026003	178.57	0.92852	13.494
0.0026003	182.14	0.92819	13.925
0.0026003	185.71	0.92784	14.35
0.0026003	189.29	0.92749	14.768
0.0026003	192.86	0.92713	15.178
0.0026003	196.43	0.92676	15.582
0.0026003	200	0.92638	15.978
0.0026003	203.57	0.92599	16.367
0.0026003	207.14	0.92559	16.749
0.0026003	210.71	0.92519	17.123
0.0026003	214.29	0.92478	17.491
0.0026003	217.86	0.92436	17.851
0.0026003	221.43	0.92393	18.205
0.0026003	225	0.92349	18.552
0.0026003	228.57	0.92305	18.893
0.0026003	232.14	0.9226	19.227
0.0026003	235.71	0.92215	19.554
0.0026003	239.29	0.92168	19.876
0.0026003	242.86	0.92122	20.191
0.0026003	246.43	0.92074	20.501
0.0026003	250	0.92026	20.805
0.0026003	253.57	0.91977	21.104
0.0026003	257.14	0.91928	21.397
0.0026003	260.71	0.91878	21.685
0.0026003	264.29	0.91827	21.968
0.0026003	267.86	0.91776	22.246
0.0026003	271.43	0.91724	22.519
0.0026003	275	0.91672	22.788
0.0033511	100	0.93334	3.7041
0.0033511	103.57	0.93323	4.0717
0.0033511	107.14	0.93312	4.4554
0.0033511	110.71	0.93299	4.8542
0.0033511	114.29	0.93286	5.2669
0.0033511	117.86	0.93271	5.692
0.0033511	121.43	0.93256	6.128
0.0033511	125	0.93239	6.5736
0.0033511	128.57	0.93221	7.0271
0.0033511	132.14	0.93202	7.4871
0.0033511	135.71	0.93182	7.9521
0.0033511	139.29	0.93161	8.4205
0.0033511	142.86	0.93139	8.8911
0.0033511	146.43	0.93116	9.3625
0.0033511	150	0.93091	9.8336
0.0033511	153.57	0.93066	10.303
0.0033511	157.14	0.9304	10.77
0.0033511	160.71	0.93012	11.234
0.0033511	164.29	0.92984	11.694
0.0033511	167.86	0.92954	12.149
0.0033511	171.43	0.92923	12.599
0.0033511	175	0.92892	13.043
0.0033511	178.57	0.92859	13.481
0.0033511	182.14	0.92826	13.912
0.0033511	185.71	0.92791	14.336
0.0033511	189.29	0.92756	14.754
0.0033511	192.86	0.9272	15.164
0.0033511	196.43	0.92683	15.567
0.0033511	200	0.92645	15.963
0.0033511	203.57	0.92606	16.352
0.0033511	207.14	0.92567	16.733
0.0033511	210.71	0.92526	17.107
0.0033511	214.29	0.92485	17.475
0.0033511	217.86	0.92443	17.835
0.0033511	221.43	0.924	18.188
0.0033511	225	0.92357	18.535
0.0033511	228.57	0.92313	18.875
0.0033511	232.14	0.92268	19.209
0.0033511	235.71	0.92222	19.536
0.0033511	239.29	0.92176	19.858
0.0033511	242.86	0.92129	20.173
0.0033511	246.43	0.92082	20.482
0.0033511	250	0.92034	20.786
0.0033511	253.57	0.91985	21.085
0.0033511	257.14	0.91936	21.378
0.0033511	260.71	0.91886	21.666
0.0033511	264.29	0.91835	21.948
0.0033511	267.86	0.91784	22.226
0.0033511	271.43	0.91732	22.5
0.0033511	275	0.9168	22.768
0.0043186	100	0.93343	3.6988
0.0043186	103.57	0.93332	4.0659
0.0043186	107.14	0.9332	4.4491
0.0043186	110.71	0.93308	4.8475
0.0043186	114.29	0.93294	5.2596
0.0043186	117.86	0.9328	5.6841
0.0043186	121.43	0.93264	6.1196
0.0043186	125	0.93248	6.5647
0.0043186	128.57	0.9323	7.0176
0.0043186	132.14	0.93211	7.4771
0.0043186	135.71	0.93191	7.9414
0.0043186	139.29	0.9317	8.4093
0.0043186	142.86	0.93148	8.8793
0.0043186	146.43	0.93125	9.3502
0.0043186	150	0.931	9.8207
0.0043186	153.57	0.93075	10.29
0.0043186	157.14	0.93049	10.757
0.0043186	160.71	0.93021	11.22
0.0043186	164.29	0.92993	11.679
0.0043186	167.86	0.92963	12.134
0.0043186	171.43	0.92933	12.583
0.0043186	175	0.92901	13.026
0.0043186	178.57	0.92869	13.464
0.0043186	182.14	0.92835	13.894
0.0043186	185.71	0.92801	14.318
0.0043186	189.29	0.92766	14.735
0.0043186	192.86	0.92729	15.145
0.0043186	196.43	0.92692	15.548
0.0043186	200	0.92654	15.943
0.0043186	203.57	0.92616	16.332
0.0043186	207.14	0.92576	16.713
0.0043186	210.71	0.92536	17.087
0.0043186	214.29	0.92495	17.453
0.0043186	217.86	0.92453	17.813
0.0043186	221.43	0.9241	18.166
0.0043186	225	0.92367	18.513
0.0043186	228.57	0.92323	18.853
0.0043186	232.14	0.92278	19.186
0.0043186	235.71	0.92232	19.513
0.0043186	239.29	0.92186	19.834
0.0043186	242.86	0.92139	20.149
0.0043186	246.43	0.92092	20.459
0.0043186	250	0.92044	20.762
0.0043186	253.57	0.91995	21.06
0.0043186	257.14	0.91946	21.353
0.0043186	260.71	0.91896	21.641
0.0043186	264.29	0.91845	21.923
0.0043186	267.86	0.91794	22.201
0.0043186	271.43	0.91743	22.474
0.0043186	275	0.91691	22.743
0.0055656	100	0.93354	3.692
0.0055656	103.57	0.93343	4.0584
0.0055656	107.14	0.93332	4.441
0.0055656	110.71	0.93319	4.8387
0.0055656	114.29	0.93306	5.2501
0.0055656	117.86	0.93291	5.674
0.0055656	121.43	0.93276	6.1088
0.0055656	125	0.93259	6.5531
0.0055656	128.57	0.93241	7.0054
0.0055656	132.14	0.93222	7.4641
0.0055656	135.71	0.93202	7.9277
0.0055656	139.29	0.93181	8.3949
0.0055656	142.86	0.93159	8.8642
0.0055656	146.43	0.93136	9.3344
0.0055656	150	0.93112	9.8042
0.0055656	153.57	0.93087	10.273
0.0055656	157.14	0.9306	10.739
0.0055656	160.71	0.93033	11.201
0.0055656	164.29	0.93004	11.66
0.0055656	167.86	0.92975	12.114
0.0055656	171.43	0.92944	12.562
0.0055656	175	0.92913	13.005
0.0055656	178.57	0.9288	13.442
0.0055656	182.14	0.92847	13.872
0.0055656	185.71	0.92813	14.295
0.0055656	189.29	0.92778	14.712
0.0055656	192.86	0.92741	15.121
0.0055656	196.43	0.92704	15.523
0.0055656	200	0.92667	15.918
0.0055656	203.57	0.92628	16.306
0.0055656	207.14	0.92588	16.686
0.0055656	210.71	0.92548	17.06
0.0055656	214.29	0.92507	17.426
0.0055656	217.86	0.92465	17.786
0.0055656	221.43	0.92423	18.138
0.0055656	225	0.92379	18.484
0.0055656	228.57	0.92335	18.824
0.0055656	232.14	0.9229	19.157
0.0055656	235.71	0.92245	19.484
0.0055656	239.29	0.92199	19.804
0.0055656	242.86	0.92152	20.119
0.0055656	246.43	0.92105	20.428
0.0055656	250	0.92057	20.731
0.0055656	253.57	0.92008	21.029
0.0055656	257.14	0.91959	21.322
0.0055656	260.71	0.91909	21.609
0.0055656	264.29	0.91859	21.891
0.0055656	267.86	0.91808	22.169
0.0055656	271.43	0.91756	22.442
0.0055656	275	0.91704	22.71
0.0071725	100	0.93368	3.6832
0.0071725	103.57	0.93357	4.0488
0.0071725	107.14	0.93346	4.4306
0.0071725	110.71	0.93334	4.8274
0.0071725	114.29	0.9332	5.238
0.0071725	117.86	0.93306	5.661
0.0071725	121.43	0.9329	6.0949
0.0071725	125	0.93273	6.5383
0.0071725	128.57	0.93256	6.9896
0.0071725	132.14	0.93237	7.4474
0.0071725	135.71	0.93217	7.9101
0.0071725	139.29	0.93196	8.3763
0.0071725	142.86	0.93174	8.8447
0.0071725	146.43	0.93151	9.3139
0.0071725	150	0.93127	9.7828
0.0071725	153.57	0.93101	10.25
0.0071725	157.14	0.93075	10.715
0.0071725	160.71	0.93048	11.177
0.0071725	164.29	0.93019	11.635
0.0071725	167.86	0.9299	12.088
0.0071725	171.43	0.92959	12.536
0.0071725	175	0.92928	12.978
0.0071725	178.57	0.92896	13.414
0.0071725	182.14	0.92862	13.843
0.0071725	185.71	0.92828	14.265
0.0071725	189.29	0.92793	14.681
0.0071725	192.86	0.92757	15.09
0.0071725	196.43	0.9272	15.491
0.0071725	200	0.92682	15.885
0.0071725	203.57	0.92644	16.273
0.0071725	207.14	0.92604	16.652
0.0071725	210.71	0.92564	17.025
0.0071725	214.29	0.92523	17.391
0.0071725	217.86	0.92481	17.75
0.0071725	221.43	0.92439	18.102
0.0071725	225	0.92395	18.448
0.0071725	228.57	0.92352	18.787
0.0071725	232.14	0.92307	19.119
0.0071725	235.71	0.92261	19.445
0.0071725	239.29	0.92215	19.766
0.0071725	242.86	0.92169	20.08
0.0071725	246.43	0.92121	20.388
0.0071725	250	0.92074	20.691
0.0071725	253.57	0.92025	20.989
0.0071725	257.14	0.91976	21.281
0.0071725	260.71	0.91926	21.568
0.0071725	264.29	0.91876	21.85
0.0071725	267.86	0.91825	22.127
0.0071725	271.43	0.91773	22.399
0.0071725	275	0.91721	22.667
0.0092434	100	0.93386	3.6719
0.0092434	103.57	0.93376	4.0365
0.0092434	107.14	0.93364	4.4172
0.0092434	110.71	0.93352	4.8129
0.0092434	114.29	0.93339	5.2223
0.0092434	117.86	0.93324	5.6441
0.0092434	121.43	0.93309	6.0769
0.0092434	125	0.93292	6.5191
0.0092434	128.57	0.93274	6.9692
0.0092434	132.14	0.93256	7.4258
0.0092434	135.71	0.93236	7.8873
0.0092434	139.29	0.93215	8.3523
0.0092434	142.86	0.93193	8.8195
0.0092434	146.43	0.9317	9.2875
0.0092434	150	0.93146	9.7553
0.0092434	153.57	0.93121	10.222
0.0092434	157.14	0.93094	10.686
0.0092434	160.71	0.93067	11.146
0.0092434	164.29	0.93039	11.603
0.0092434	167.86	0.93009	12.055
0.0092434	171.43	0.92979	12.501
0.0092434	175	0.92948	12.942
0.0092434	178.57	0.92915	13.377
0.0092434	182.14	0.92882	13.805
0.0092434	185.71	0.92848	14.227
0.0092434	189.29	0.92813	14.642
0.0092434	192.86	0.92777	15.049
0.0092434	196.43	0.9274	15.45
0.0092434	200	0.92702	15.843
0.0092434	203.57	0.92664	16.23
0.0092434	207.14	0.92625	16.609
0.0092434	210.71	0.92584	16.981
0.0092434	214.29	0.92544	17.346
0.0092434	217.86	0.92502	17.704
0.0092434	221.43	0.92459	18.056
0.0092434	225	0.92416	18.4
0.0092434	228.57	0.92372	18.739
0.0092434	232.14	0.92328	19.071
0.0092434	235.71	0.92283	19.396
0.0092434	239.29	0.92237	19.716
0.0092434	242.86	0.9219	20.029
0.0092434	246.43	0.92143	20.337
0.0092434	250	0.92095	20.64
0.0092434	253.57	0.92047	20.937
0.0092434	257.14	0.91998	21.228
0.0092434	260.71	0.91948	21.515
0.0092434	264.29	0.91898	21.796
0.0092434	267.86	0.91847	22.073
0.0092434	271.43	0.91796	22.345
0.0092434	275	0.91744	22.612
0.011912	100	0.9341	3.6573
0.011912	103.57	0.934	4.0205
0.011912	107.14	0.93388	4.3998
0.011912	110.71	0.93376	4.7941
0.011912	114.29	0.93362	5.2021
0.011912	117.86	0.93348	5.6224
0.011912	121.43	0.93333	6.0537
0.011912	125	0.93316	6.4944
0.011912	128.57	0.93299	6.943
0.011912	132.14	0.9328	7.398
0.011912	135.71	0.9326	7.8579
0.011912	139.29	0.93239	8.3214
0.011912	142.86	0.93217	8.787
0.011912	146.43	0.93194	9.2535
0.011912	150	0.9317	9.7197
0.011912	153.57	0.93145	10.185
0.011912	157.14	0.93119	10.647
0.011912	160.71	0.93092	11.106
0.011912	164.29	0.93064	11.561
0.011912	167.86	0.93034	12.012
0.011912	171.43	0.93004	12.457
0.011912	175	0.92973	12.897
0.011912	178.57	0.92941	13.33
0.011912	182.14	0.92908	13.757
0.011912	185.71	0.92873	14.178
0.011912	189.29	0.92839	14.591
0.011912	192.86	0.92803	14.998
0.011912	196.43	0.92766	15.397
0.011912	200	0.92728	15.789
0.011912	203.57	0.9269	16.174
0.011912	207.14	0.92651	16.553
0.011912	210.71	0.92611	16.924
0.011912	214.29	0.9257	17.288
0.011912	217.86	0.92529	17.645
0.011912	221.43	0.92486	17.995
0.011912	225	0.92443	18.339
0.011912	228.57	0.92399	18.677
0.011912	232.14	0.92355	19.008
0.011912	235.71	0.9231	19.333
0.011912	239.29	0.92264	19.651
0.011912	242.86	0.92218	19.964
0.011912	246.43	0.92171	20.272
0.011912	250	0.92123	20.573
0.011912	253.57	0.92075	20.87
0.011912	257.14	0.92026	21.161
0.011912	260.71	0.91976	21.446
0.011912	264.29	0.91926	21.727
0.011912	267.86	0.91875	22.003
0.011912	271.43	0.91824	22.275
0.011912	275	0.91773	22.542
0.015352	100	0.9344	3.6384
0.015352	103.57	0.9343	3.9999
0.015352	107.14	0.93419	4.3775
0.015352	110.71	0.93406	4.7699
0.015352	114.29	0.93393	5.176
0.015352	117.86	0.93379	5.5945
0.015352	121.43	0.93363	6.0238
0.015352	125	0.93347	6.4625
0.015352	128.57	0.93329	6.9091
0.015352	132.14	0.93311	7.3621
0.015352	135.71	0.93291	7.82
0.015352	139.29	0.93271	8.2815
0.015352	142.86	0.93249	8.7451
0.015352	146.43	0.93226	9.2096
0.015352	150	0.93202	9.6739
0.015352	153.57	0.93177	10.137
0.015352	157.14	0.93151	10.597
0.015352	160.71	0.93124	11.055
0.015352	164.29	0.93096	11.508
0.015352	167.86	0.93066	11.957
0.015352	171.43	0.93036	12.4
0.015352	175	0.93005	12.838
0.015352	178.57	0.92973	13.27
0.015352	182.14	0.9294	13.695
0.015352	185.71	0.92906	14.114
0.015352	189.29	0.92872	14.526
0.015352	192.86	0.92836	14.931
0.015352	196.43	0.92799	15.329
0.015352	200	0.92762	15.719
0.015352	203.57	0.92724	16.103
0.015352	207.14	0.92685	16.48
0.015352	210.71	0.92645	16.85
0.015352	214.29	0.92604	17.212
0.015352	217.86	0.92563	17.568
0.015352	221.43	0.92521	17.918
0.015352	225	0.92478	18.261
0.015352	228.57	0.92434	18.597
0.015352	232.14	0.9239	18.927
0.015352	235.71	0.92345	19.251
0.015352	239.29	0.92299	19.569
0.015352	242.86	0.92253	19.881
0.015352	246.43	0.92206	20.187
0.015352	250	0.92159	20.488
0.015352	253.57	0.9211	20.783
0.015352	257.14	0.92062	21.073
0.015352	260.71	0.92012	21.358
0.015352	264.29	0.91963	21.638
0.015352	267.86	0.91912	21.914
0.015352	271.43	0.91861	22.185
0.015352	275	0.9181	22.451
0.019784	100	0.9348	3.6141
0.019784	103.57	0.93469	3.9734
0.019784	107.14	0.93458	4.3486
0.019784	110.71	0.93446	4.7387
0.019784	114.29	0.93433	5.1424
0.019784	117.86	0.93418	5.5583
0.019784	121.43	0.93403	5.9851
0.019784	125	0.93387	6.4213
0.019784	128.57	0.93369	6.8653
0.019784	132.14	0.93351	7.3157
0.019784	135.71	0.93331	7.7711
0.019784	139.29	0.93311	8.23
0.019784	142.86	0.93289	8.691
0.019784	146.43	0.93266	9.153
0.019784	150	0.93242	9.6147
0.019784	153.57	0.93218	10.075
0.019784	157.14	0.93192	10.533
0.019784	160.71	0.93165	10.988
0.019784	164.29	0.93137	11.439
0.019784	167.86	0.93108	11.885
0.019784	171.43	0.93078	12.326
0.019784	175	0.93047	12.762
0.019784	178.57	0.93015	13.192
0.019784	182.14	0.92982	13.615
0.019784	185.71	0.92949	14.031
0.019784	189.29	0.92914	14.441
0.019784	192.86	0.92878	14.844
0.019784	196.43	0.92842	15.24
0.019784	200	0.92805	15.629
0.019784	203.57	0.92767	16.011
0.019784	207.14	0.92728	16.386
0.019784	210.71	0.92688	16.754
0.019784	214.29	0.92648	17.115
0.019784	217.86	0.92607	17.47
0.019784	221.43	0.92565	17.818
0.019784	225	0.92522	18.159
0.019784	228.57	0.92479	18.494
0.019784	232.14	0.92435	18.822
0.019784	235.71	0.9239	19.145
0.019784	239.29	0.92345	19.462
0.019784	242.86	0.92299	19.772
0.019784	246.43	0.92252	20.077
0.019784	250	0.92205	20.377
0.019784	253.57	0.92157	20.671
0.019784	257.14	0.92108	20.96
0.019784	260.71	0.92059	21.245
0.019784	264.29	0.92009	21.524
0.019784	267.86	0.91959	21.798
0.019784	271.43	0.91908	22.068
0.019784	275	0.91857	22.333
0.025497	100	0.9353	3.5827
0.025497	103.57	0.9352	3.9391
0.025497	107.14	0.93508	4.3114
0.025497	110.71	0.93496	4.6984
0.025497	114.29	0.93483	5.099
0.025497	117.86	0.93469	5.5117
0.025497	121.43	0.93454	5.9353
0.025497	125	0.93438	6.3681
0.025497	128.57	0.9342	6.8089
0.025497	132.14	0.93402	7.2559
0.025497	135.71	0.93383	7.708
0.025497	139.29	0.93362	8.1635
0.025497	142.86	0.93341	8.6212
0.025497	146.43	0.93318	9.0799
0.025497	150	0.93295	9.5383
0.025497	153.57	0.9327	9.9954
0.025497	157.14	0.93244	10.45
0.025497	160.71	0.93217	10.902
0.025497	164.29	0.9319	11.35
0.025497	167.86	0.93161	11.793
0.025497	171.43	0.93131	12.231
0.025497	175	0.931	12.664
0.025497	178.57	0.93069	13.091
0.025497	182.14	0.93036	13.511
0.025497	185.71	0.93003	13.925
0.025497	189.29	0.92968	14.332
0.025497	192.86	0.92933	14.733
0.025497	196.43	0.92897	15.126
0.025497	200	0.9286	15.513
0.025497	203.57	0.92822	15.893
0.025497	207.14	0.92784	16.265
0.025497	210.71	0.92744	16.631
0.025497	214.29	0.92704	16.99
0.025497	217.86	0.92663	17.343
0.025497	221.43	0.92622	17.689
0.025497	225	0.92579	18.028
0.025497	228.57	0.92536	18.361
0.025497	232.14	0.92492	18.688
0.025497	235.71	0.92448	19.009
0.025497	239.29	0.92403	19.324
0.025497	242.86	0.92357	19.633
0.025497	246.43	0.92311	19.936
0.025497	250	0.92264	20.234
0.025497	253.57	0.92216	20.527
0.025497	257.14	0.92168	20.815
0.025497	260.71	0.92119	21.098
0.025497	264.29	0.9207	21.376
0.025497	267.86	0.9202	21.649
0.025497	271.43	0.91969	21.918
0.025497	275	0.91918	22.182
0.032858	100	0.93594	3.5421
0.032858	103.57	0.93584	3.8948
0.032858	107.14	0.93573	4.2633
0.032858	110.71	0.93561	4.6464
0.032858	114.29	0.93548	5.0429
0.032858	117.86	0.93534	5.4515
0.032858	121.43	0.93519	5.8709
0.032858	125	0.93503	6.2995
0.032858	128.57	0.93486	6.7359
0.032858	132.14	0.93468	7.1787
0.032858	135.71	0.93449	7.6264
0.032858	139.29	0.93428	8.0776
0.032858	142.86	0.93407	8.5311
0.032858	146.43	0.93385	8.9854
0.032858	150	0.93361	9.4396
0.032858	153.57	0.93337	9.8925
0.032858	157.14	0.93311	10.343
0.032858	160.71	0.93285	10.791
0.032858	164.29	0.93257	11.235
0.032858	167.86	0.93229	11.674
0.032858	171.43	0.932	12.109
0.032858	175	0.93169	12.538
0.032858	178.57	0.93138	12.961
0.032858	182.14	0.93106	13.377
0.032858	185.71	0.93072	13.788
0.032858	189.29	0.93038	14.192
0.032858	192.86	0.93003	14.589
0.032858	196.43	0.92968	14.979
0.032858	200	0.92931	15.363
0.032858	203.57	0.92894	15.739
0.032858	207.14	0.92855	16.109
0.032858	210.71	0.92816	16.472
0.032858	214.29	0.92776	16.829
0.032858	217.86	0.92736	17.178
0.032858	221.43	0.92695	17.522
0.032858	225	0.92653	17.859
0.032858	228.57	0.9261	18.189
0.032858	232.14	0.92566	18.514
0.032858	235.71	0.92522	18.833
0.032858	239.29	0.92478	19.145
0.032858	242.86	0.92432	19.452
0.032858	246.43	0.92386	19.754
0.032858	250	0.9234	20.05
0.032858	253.57	0.92292	20.341
0.032858	257.14	0.92245	20.627
0.032858	260.71	0.92196	20.908
0.032858	264.29	0.92147	21.185
0.032858	267.86	0.92098	21.456
0.032858	271.43	0.92048	21.724
0.032858	275	0.91997	21.986
0.042345	100	0.93677	3.4897
0.042345	103.57	0.93667	3.8377
0.042345	107.14	0.93656	4.2012
0.042345	110.71	0.93644	4.5791
0.042345	114.29	0.93631	4.9704
0.042345	117.86	0.93618	5.3737
0.042345	121.43	0.93603	5.7876
0.042345	125	0.93587	6.2108
0.042345	128.57	0.9357	6.6417
0.042345	132.14	0.93552	7.0789
0.042345	135.71	0.93533	7.521
0.042345	139.29	0.93513	7.9666
0.042345	142.86	0.93492	8.4145
0.042345	146.43	0.9347	8.8634
0.042345	150	0.93447	9.3121
0.042345	153.57	0.93423	9.7596
0.042345	157.14	0.93398	10.205
0.042345	160.71	0.93372	10.647
0.042345	164.29	0.93345	11.086
0.042345	167.86	0.93316	11.52
0.042345	171.43	0.93287	11.95
0.042345	175	0.93257	12.374
0.042345	178.57	0.93226	12.792
0.042345	182.14	0.93194	13.205
0.042345	185.71	0.93162	13.611
0.042345	189.29	0.93128	14.01
0.042345	192.86	0.93093	14.403
0.042345	196.43	0.93058	14.789
0.042345	200	0.93022	15.169
0.042345	203.57	0.92985	15.542
0.042345	207.14	0.92947	15.908
0.042345	210.71	0.92909	16.267
0.042345	214.29	0.92869	16.62
0.042345	217.86	0.92829	16.966
0.042345	221.43	0.92788	17.306
0.042345	225	0.92747	17.64
0.042345	228.57	0.92704	17.968
0.042345	232.14	0.92662	18.289
0.042345	235.71	0.92618	18.605
0.042345	239.29	0.92574	18.915
0.042345	242.86	0.92529	19.22
0.042345	246.43	0.92483	19.519
0.042345	250	0.92437	19.813
0.042345	253.57	0.9239	20.101
0.042345	257.14	0.92343	20.385
0.042345	260.71	0.92295	20.664
0.042345	264.29	0.92247	20.938
0.042345	267.86	0.92198	21.208
0.042345	271.43	0.92148	21.473
0.042345	275	0.92098	21.734
0.054572	100	0.93783	3.422
0.054572	103.57	0.93773	3.7638
0.054572	107.14	0.93762	4.1208
0.054572	110.71	0.93751	4.4922
0.054572	114.29	0.93738	4.8767
0.054572	117.86	0.93724	5.2731
0.054572	121.43	0.9371	5.68
0.054572	125	0.93694	6.096
0.054572	128.57	0.93678	6.5197
0.054572	132.14	0.9366	6.9497
0.054572	135.71	0.93642	7.3846
0.054572	139.29	0.93622	7.8231
0.054572	142.86	0.93601	8.2638
0.054572	146.43	0.9358	8.7055
0.054572	150	0.93557	9.1471
0.054572	153.57	0.93533	9.5876
0.054572	157.14	0.93508	10.026
0.054572	160.71	0.93483	10.462
0.054572	164.29	0.93456	10.894
0.054572	167.86	0.93428	11.322
0.054572	171.43	0.934	11.745
0.054572	175	0.9337	12.163
0.054572	178.57	0.9334	12.575
0.054572	182.14	0.93308	12.981
0.054572	185.71	0.93276	13.381
0.054572	189.29	0.93243	13.775
0.054572	192.86	0.93209	14.163
0.054572	196.43	0.93174	14.544
0.054572	200	0.93138	14.918
0.054572	203.57	0.93102	15.286
0.054572	207.14	0.93065	15.647
0.054572	210.71	0.93027	16.002
0.054572	214.29	0.92988	16.35
0.054572	217.86	0.92948	16.692
0.054572	221.43	0.92908	17.028
0.054572	225	0.92867	17.358
0.054572	228.57	0.92826	17.682
0.054572	232.14	0.92783	18
0.054572	235.71	0.9274	18.312
0.054572	239.29	0.92697	18.618
0.054572	242.86	0.92652	18.919
0.054572	246.43	0.92608	19.215
0.054572	250	0.92562	19.506
0.054572	253.57	0.92516	19.792
0.054572	257.14	0.92469	20.072
0.054572	260.71	0.92422	20.349
0.054572	264.29	0.92374	20.62
0.054572	267.86	0.92326	20.887
0.054572	271.43	0.92277	21.15
0.054572	275	0.92227	21.409
0.070328	100	0.93918	3.3345
0.070328	103.57	0.93908	3.6681
0.070328	107.14	0.93898	4.0169
0.070328	110.71	0.93886	4.3797
0.070328	114.29	0.93874	4.7554
0.070328	117.86	0.93861	5.1429
0.070328	121.43	0.93847	5.5407
0.070328	125	0.93831	5.9475
0.070328	128.57	0.93815	6.3619
0.070328	132.14	0.93798	6.7826
0.070328	135.71	0.9378	7.2081
0.070328	139.29	0.93761	7.6372
0.070328	142.86	0.9374	8.0686
0.070328	146.43	0.93719	8.501
0.070328	150	0.93697	8.9335
0.070328	153.57	0.93674	9.365
0.070328	157.14	0.9365	9.7946
0.070328	160.71	0.93624	10.221
0.070328	164.29	0.93598	10.645
0.070328	167.86	0.93571	11.064
0.070328	171.43	0.93543	11.479
0.070328	175	0.93514	11.889
0.070328	178.57	0.93484	12.293
0.070328	182.14	0.93454	12.692
0.070328	185.71	0.93422	13.085
0.070328	189.29	0.9339	13.471
0.070328	192.86	0.93356	13.852
0.070328	196.43	0.93322	14.226
0.070328	200	0.93287	14.594
0.070328	203.57	0.93252	14.955
0.070328	207.14	0.93215	15.31
0.070328	210.71	0.93178	15.659
0.070328	214.29	0.9314	16.002
0.070328	217.86	0.93101	16.338
0.070328	221.43	0.93062	16.668
0.070328	225	0.93022	16.993
0.070328	228.57	0.92981	17.312
0.070328	232.14	0.92939	17.625
0.070328	235.71	0.92897	17.932
0.070328	239.29	0.92854	18.234
0.070328	242.86	0.92811	18.531
0.070328	246.43	0.92767	18.823
0.070328	250	0.92722	19.109
0.070328	253.57	0.92677	19.391
0.070328	257.14	0.92631	19.668
0.070328	260.71	0.92584	19.941
0.070328	264.29	0.92537	20.209
0.070328	267.86	0.9249	20.473
0.070328	271.43	0.92442	20.732
0.070328	275	0.92393	20.988
0.090634	100	0.94089	3.2211
0.090634	103.57	0.9408	3.5443
0.090634	107.14	0.9407	3.8822
0.090634	110.71	0.94059	4.2339
0.090634	114.29	0.94047	4.5983
0.090634	117.86	0.94034	4.9741
0.090634	121.43	0.94021	5.3601
0.090634	125	0.94006	5.7549
0.090634	128.57	0.9399	6.1573
0.090634	132.14	0.93974	6.5659
0.090634	135.71	0.93956	6.9793
0.090634	139.29	0.93937	7.3962
0.090634	142.86	0.93918	7.8155
0.090634	146.43	0.93897	8.236
0.090634	150	0.93876	8.6567
0.090634	153.57	0.93853	9.0765
0.090634	157.14	0.9383	9.4945
0.090634	160.71	0.93805	9.91
0.090634	164.29	0.9378	10.322
0.090634	167.86	0.93753	10.731
0.090634	171.43	0.93726	11.135
0.090634	175	0.93698	11.534
0.090634	178.57	0.93669	11.929
0.090634	182.14	0.93639	12.317
0.090634	185.71	0.93608	12.701
0.090634	189.29	0.93577	13.078
0.090634	192.86	0.93545	13.449
0.090634	196.43	0.93511	13.814
0.090634	200	0.93477	14.174
0.090634	203.57	0.93443	14.527
0.090634	207.14	0.93407	14.874
0.090634	210.71	0.93371	15.215
0.090634	214.29	0.93334	15.55
0.090634	217.86	0.93296	15.879
0.090634	221.43	0.93258	16.203
0.090634	225	0.93218	16.521
0.090634	228.57	0.93179	16.833
0.090634	232.14	0.93138	17.14
0.090634	235.71	0.93097	17.441
0.090634	239.29	0.93055	17.737
0.090634	242.86	0.93013	18.028
0.090634	246.43	0.9297	18.315
0.090634	250	0.92926	18.596
0.090634	253.57	0.92882	18.873
0.090634	257.14	0.92837	19.145
0.090634	260.71	0.92792	19.413
0.090634	264.29	0.92746	19.677
0.090634	267.86	0.927	19.937
0.090634	271.43	0.92653	20.192
0.090634	275	0.92605	20.444
0.1168	100	0.94307	3.0741
0.1168	103.57	0.94299	3.3837
0.1168	107.14	0.94289	3.7076
0.1168	110.71	0.94278	4.0449
0.1168	114.29	0.94267	4.3944
0.1168	117.86	0.94255	4.7551
0.1168	121.43	0.94242	5.1257
0.1168	125	0.94227	5.505
0.1168	128.57	0.94212	5.8917
0.1168	132.14	0.94196	6.2845
0.1168	135.71	0.94179	6.6822
0.1168	139.29	0.94162	7.0834
0.1168	142.86	0.94143	7.4871
0.1168	146.43	0.94123	7.892
0.1168	150	0.94102	8.2973
0.1168	153.57	0.94081	8.7019
0.1168	157.14	0.94058	9.105
0.1168	160.71	0.94035	9.5058
0.1168	164.29	0.9401	9.9037
0.1168	167.86	0.93985	10.298
0.1168	171.43	0.93959	10.688
0.1168	175	0.93932	11.074
0.1168	178.57	0.93904	11.455
0.1168	182.14	0.93875	11.831
0.1168	185.71	0.93845	12.202
0.1168	189.29	0.93815	12.567
0.1168	192.86	0.93784	12.927
0.1168	196.43	0.93752	13.281
0.1168	200	0.93719	13.629
0.1168	203.57	0.93686	13.972
0.1168	207.14	0.93651	14.308
0.1168	210.71	0.93616	14.64
0.1168	214.29	0.93581	14.965
0.1168	217.86	0.93544	15.285
0.1168	221.43	0.93507	15.599
0.1168	225	0.93469	15.909
0.1168	228.57	0.93431	16.213
0.1168	232.14	0.93392	16.511
0.1168	235.71	0.93352	16.805
0.1168	239.29	0.93312	17.094
0.1168	242.86	0.93271	17.378
0.1168	246.43	0.93229	17.657
0.1168	250	0.93187	17.932
0.1168	253.57	0.93144	18.203
0.1168	257.14	0.93101	18.469
0.1168	260.71	0.93057	18.731
0.1168	264.29	0.93012	18.989
0.1168	267.86	0.92967	19.243
0.1168	271.43	0.92922	19.493
0.1168	275	0.92876	19.74
0.15053	100	0.94583	2.8833
0.15053	103.57	0.94574	3.1752
0.15053	107.14	0.94565	3.4808
0.15053	110.71	0.94555	3.7992
0.15053	114.29	0.94545	4.1295
0.15053	117.86	0.94533	4.4705
0.15053	121.43	0.94521	4.8211
0.15053	125	0.94507	5.1802
0.15053	128.57	0.94493	5.5465
0.15053	132.14	0.94478	5.9187
0.15053	135.71	0.94462	6.2959
0.15053	139.29	0.94445	6.6766
0.15053	142.86	0.94428	7.0599
0.15053	146.43	0.94409	7.4446
0.15053	150	0.94389	7.8299
0.15053	153.57	0.94369	8.2148
0.15053	157.14	0.94347	8.5984
0.15053	160.71	0.94325	8.9802
0.15053	164.29	0.94302	9.3594
0.15053	167.86	0.94278	9.7354
0.15053	171.43	0.94253	10.108
0.15053	175	0.94228	10.476
0.15053	178.57	0.94201	10.84
0.15053	182.14	0.94174	11.2
0.15053	185.71	0.94146	11.555
0.15053	189.29	0.94117	11.904
0.15053	192.86	0.94087	12.249
0.15053	196.43	0.94057	12.588
0.15053	200	0.94026	12.922
0.15053	203.57	0.93994	13.251
0.15053	207.14	0.93961	13.574
0.15053	210.71	0.93928	13.893
0.15053	214.29	0.93894	14.206
0.15053	217.86	0.93859	14.514
0.15053	221.43	0.93824	14.817
0.15053	225	0.93787	15.115
0.15053	228.57	0.93751	15.408
0.15053	232.14	0.93713	15.696
0.15053	235.71	0.93675	15.98
0.15053	239.29	0.93637	16.259
0.15053	242.86	0.93598	16.534
0.15053	246.43	0.93558	16.805
0.15053	250	0.93518	17.071
0.15053	253.57	0.93477	17.334
0.15053	257.14	0.93435	17.592
0.15053	260.71	0.93393	17.846
0.15053	264.29	0.93351	18.097
0.15053	267.86	0.93308	18.344
0.15053	271.43	0.93264	18.588
0.15053	275	0.9322	18.828
0.19399	100	0.94929	2.6353
0.19399	103.57	0.94921	2.9041
0.19399	107.14	0.94913	3.1858
0.19399	110.71	0.94904	3.4796
0.19399	114.29	0.94894	3.7846
0.19399	117.86	0.94883	4.0999
0.19399	121.43	0.94872	4.4244
0.19399	125	0.9486	4.757
0.19399	128.57	0.94847	5.0966
0.19399	132.14	0.94833	5.4422
0.19399	135.71	0.94818	5.7925
0.19399	139.29	0.94802	6.1465
0.19399	142.86	0.94786	6.5032
0.19399	146.43	0.94769	6.8617
0.19399	150	0.9475	7.2209
0.19399	153.57	0.94731	7.5801
0.19399	157.14	0.94712	7.9385
0.19399	160.71	0.94691	8.2955
0.19399	164.29	0.9467	8.6504
0.19399	167.86	0.94647	9.0027
0.19399	171.43	0.94624	9.3519
0.19399	175	0.946	9.6978
0.19399	178.57	0.94576	10.04
0.19399	182.14	0.9455	10.378
0.19399	185.71	0.94524	10.712
0.19399	189.29	0.94497	11.041
0.19399	192.86	0.9447	11.366
0.19399	196.43	0.94441	11.687
0.19399	200	0.94412	12.002
0.19399	203.57	0.94383	12.313
0.19399	207.14	0.94352	12.62
0.19399	210.71	0.94321	12.922
0.19399	214.29	0.94289	13.219
0.19399	217.86	0.94257	13.511
0.19399	221.43	0.94224	13.8
0.19399	225	0.9419	14.083
0.19399	228.57	0.94155	14.363
0.19399	232.14	0.9412	14.638
0.19399	235.71	0.94085	14.909
0.19399	239.29	0.94049	15.176
0.19399	242.86	0.94012	15.439
0.19399	246.43	0.93974	15.698
0.19399	250	0.93937	15.954
0.19399	253.57	0.93898	16.206
0.19399	257.14	0.93859	16.454
0.19399	260.71	0.93819	16.699
0.19399	264.29	0.93779	16.941
0.19399	267.86	0.93739	17.179
0.19399	271.43	0.93698	17.414
0.19399	275	0.93656	17.646
0.25	100	0.95361	2.3124
0.25	103.57	0.95354	2.551
0.25	107.14	0.95347	2.8014
0.25	110.71	0.95339	3.063
0.25	114.29	0.9533	3.335
0.25	117.86	0.95321	3.6165
0.25	121.43	0.9531	3.9068
0.25	125	0.953	4.2048
0.25	128.57	0.95288	4.5095
0.25	132.14	0.95276	4.82
0.25	135.71	0.95262	5.1353
0.25	139.29	0.95249	5.4544
0.25	142.86	0.95234	5.7764
0.25	146.43	0.95218	6.1004
0.25	150	0.95202	6.4257
0.25	153.57	0.95185	6.7514
0.25	157.14	0.95168	7.0769
0.25	160.71	0.95149	7.4016
0.25	164.29	0.9513	7.7249
0.25	167.86	0.9511	8.0463
0.25	171.43	0.95089	8.3654
0.25	175	0.95068	8.6818
0.25	178.57	0.95046	8.9954
0.25	182.14	0.95023	9.3057
0.25	185.71	0.94999	9.6127
0.25	189.29	0.94975	9.916
0.25	192.86	0.9495	10.216
0.25	196.43	0.94924	10.512
0.25	200	0.94898	10.804
0.25	203.57	0.94871	11.092
0.25	207.14	0.94843	11.376
0.25	210.71	0.94815	11.657
0.25	214.29	0.94786	11.934
0.25	217.86	0.94757	12.206
0.25	221.43	0.94726	12.476
0.25	225	0.94696	12.741
0.25	228.57	0.94664	13.003
0.25	232.14	0.94633	13.261
0.25	235.71	0.946	13.516
0.25	239.29	0.94567	13.767
0.25	242.86	0.94533	14.015
0.25	246.43	0.94499	14.26
0.25	250	0.94464	14.501
0.25	253.57	0.94429	14.74
0.25	257.14	0.94393	14.975
0.25	260.71	0.94357	15.208
0.25	264.29	0.9432	15.438
0.25	267.86	0.94283	15.665
0.25	271.43	0.94245	15.889
0.25	275	0.94207	16.111
