Press (GPa)	Temp (K)	Density (g/cm^-3)	dT/dP (K/GPa)
0.1	100	1.1911	6.7694
0.1	103.27	1.1908	7.0007
0.1	106.53	1.1905	7.2329
0.1	109.8	1.1902	7.4657
0.1	113.06	1.1899	7.6993
0.1	116.33	1.1896	7.9336
0.1	119.59	1.1893	8.1689
0.1	122.86	1.189	8.4051
0.1	126.12	1.1886	8.6425
0.1	129.39	1.1883	8.881
0.1	132.65	1.1879	9.1207
0.1	135.92	1.1876	9.3614
0.1	139.18	1.1872	9.603
0.1	142.45	1.1868	9.8457
0.1	145.71	1.1865	10.089
0.1	148.98	1.1861	10.334
0.1	152.24	1.1857	10.581
0.1	155.51	1.1853	10.828
0.1	158.78	1.1849	11.077
0.1	162.04	1.1845	11.326
0.1	165.31	1.1841	11.578
0.1	168.57	1.1837	11.83
0.1	171.84	1.1833	12.085
0.1	175.1	1.1828	12.34
0.1	178.37	1.1824	12.596
0.1	181.63	1.1819	12.853
0.1	184.9	1.1815	13.113
0.1	188.16	1.181	13.375
0.1	191.43	1.1806	13.639
0.1	194.69	1.1801	13.903
0.1	197.96	1.1796	14.167
0.1	201.22	1.1792	14.432
0.1	204.49	1.1787	14.701
0.1	207.76	1.1782	14.973
0.1	211.02	1.1777	15.248
0.1	214.29	1.1772	15.524
0.1	217.55	1.1767	15.8
0.1	220.82	1.1762	16.077
0.1	224.08	1.1756	16.354
0.1	227.35	1.1751	16.633
0.1	230.61	1.1746	16.915
0.1	233.88	1.174	17.2
0.1	237.14	1.1735	17.489
0.1	240.41	1.1729	17.781
0.1	243.67	1.1724	18.077
0.1	246.94	1.1718	18.375
0.1	250.2	1.1712	18.676
0.1	253.47	1.1706	18.977
0.1	256.73	1.17	19.277
0.1	260	1.1695	19.575
0.11531	100	1.1924	6.7187
0.11531	103.27	1.1921	6.9482
0.11531	106.53	1.1918	7.1786
0.11531	109.8	1.1915	7.4098
0.11531	113.06	1.1912	7.6416
0.11531	116.33	1.1909	7.8743
0.11531	119.59	1.1905	8.1078
0.11531	122.86	1.1902	8.3423
0.11531	126.12	1.1899	8.5779
0.11531	129.39	1.1895	8.8147
0.11531	132.65	1.1892	9.0525
0.11531	135.92	1.1888	9.2914
0.11531	139.18	1.1885	9.5312
0.11531	142.45	1.1881	9.772
0.11531	145.71	1.1877	10.014
0.11531	148.98	1.1874	10.257
0.11531	152.24	1.187	10.501
0.11531	155.51	1.1866	10.747
0.11531	158.78	1.1862	10.993
0.11531	162.04	1.1858	11.241
0.11531	165.31	1.1854	11.491
0.11531	168.57	1.185	11.741
0.11531	171.84	1.1845	11.994
0.11531	175.1	1.1841	12.247
0.11531	178.37	1.1837	12.501
0.11531	181.63	1.1832	12.756
0.11531	184.9	1.1828	13.014
0.11531	188.16	1.1823	13.274
0.11531	191.43	1.1819	13.535
0.11531	194.69	1.1814	13.797
0.11531	197.96	1.181	14.058
0.11531	201.22	1.1805	14.322
0.11531	204.49	1.18	14.589
0.11531	207.76	1.1795	14.859
0.11531	211.02	1.179	15.131
0.11531	214.29	1.1785	15.405
0.11531	217.55	1.178	15.678
0.11531	220.82	1.1775	15.952
0.11531	224.08	1.177	16.227
0.11531	227.35	1.1764	16.504
0.11531	230.61	1.1759	16.783
0.11531	233.88	1.1754	17.066
0.11531	237.14	1.1748	17.352
0.11531	240.41	1.1743	17.642
0.11531	243.67	1.1737	17.935
0.11531	246.94	1.1732	18.23
0.11531	250.2	1.1726	18.527
0.11531	253.47	1.172	18.825
0.11531	256.73	1.1714	19.12
0.11531	260	1.1708	19.413
0.13061	100	1.1936	6.6687
0.13061	103.27	1.1933	6.8966
0.13061	106.53	1.193	7.1253
0.13061	109.8	1.1927	7.3547
0.13061	113.06	1.1924	7.5849
0.13061	116.33	1.1921	7.8158
0.13061	119.59	1.1918	8.0477
0.13061	122.86	1.1915	8.2805
0.13061	126.12	1.1911	8.5143
0.13061	129.39	1.1908	8.7494
0.13061	132.65	1.1904	8.9854
0.13061	135.92	1.1901	9.2225
0.13061	139.18	1.1897	9.4605
0.13061	142.45	1.1894	9.6996
0.13061	145.71	1.189	9.9397
0.13061	148.98	1.1886	10.181
0.13061	152.24	1.1882	10.423
0.13061	155.51	1.1879	10.667
0.13061	158.78	1.1875	10.912
0.13061	162.04	1.1871	11.158
0.13061	165.31	1.1867	11.405
0.13061	168.57	1.1862	11.654
0.13061	171.84	1.1858	11.904
0.13061	175.1	1.1854	12.155
0.13061	178.37	1.185	12.407
0.13061	181.63	1.1845	12.661
0.13061	184.9	1.1841	12.917
0.13061	188.16	1.1836	13.174
0.13061	191.43	1.1832	13.433
0.13061	194.69	1.1827	13.692
0.13061	197.96	1.1823	13.952
0.13061	201.22	1.1818	14.214
0.13061	204.49	1.1813	14.478
0.13061	207.76	1.1808	14.746
0.13061	211.02	1.1803	15.016
0.13061	214.29	1.1798	15.287
0.13061	217.55	1.1793	15.558
0.13061	220.82	1.1788	15.83
0.13061	224.08	1.1783	16.102
0.13061	227.35	1.1778	16.377
0.13061	230.61	1.1773	16.654
0.13061	233.88	1.1767	16.935
0.13061	237.14	1.1762	17.219
0.13061	240.41	1.1756	17.506
0.13061	243.67	1.1751	17.796
0.13061	246.94	1.1745	18.088
0.13061	250.2	1.1739	18.381
0.13061	253.47	1.1734	18.674
0.13061	256.73	1.1728	18.966
0.13061	260	1.1722	19.253
0.14592	100	1.1948	6.6196
0.14592	103.27	1.1946	6.8457
0.14592	106.53	1.1943	7.0727
0.14592	109.8	1.194	7.3005
0.14592	113.06	1.1937	7.529
0.14592	116.33	1.1934	7.7583
0.14592	119.59	1.193	7.9885
0.14592	122.86	1.1927	8.2196
0.14592	126.12	1.1924	8.4518
0.14592	129.39	1.192	8.6851
0.14592	132.65	1.1917	8.9194
0.14592	135.92	1.1913	9.1547
0.14592	139.18	1.191	9.391
0.14592	142.45	1.1906	9.6283
0.14592	145.71	1.1903	9.8666
0.14592	148.98	1.1899	10.106
0.14592	152.24	1.1895	10.347
0.14592	155.51	1.1891	10.588
0.14592	158.78	1.1887	10.831
0.14592	162.04	1.1883	11.076
0.14592	165.31	1.1879	11.321
0.14592	168.57	1.1875	11.568
0.14592	171.84	1.1871	11.816
0.14592	175.1	1.1867	12.065
0.14592	178.37	1.1863	12.315
0.14592	181.63	1.1858	12.567
0.14592	184.9	1.1854	12.821
0.14592	188.16	1.1849	13.076
0.14592	191.43	1.1845	13.333
0.14592	194.69	1.184	13.59
0.14592	197.96	1.1836	13.848
0.14592	201.22	1.1831	14.107
0.14592	204.49	1.1826	14.37
0.14592	207.76	1.1821	14.635
0.14592	211.02	1.1816	14.903
0.14592	214.29	1.1812	15.171
0.14592	217.55	1.1807	15.44
0.14592	220.82	1.1801	15.709
0.14592	224.08	1.1796	15.98
0.14592	227.35	1.1791	16.252
0.14592	230.61	1.1786	16.528
0.14592	233.88	1.1781	16.806
0.14592	237.14	1.1775	17.087
0.14592	240.41	1.177	17.372
0.14592	243.67	1.1764	17.659
0.14592	246.94	1.1759	17.947
0.14592	250.2	1.1753	18.237
0.14592	253.47	1.1747	18.526
0.14592	256.73	1.1742	18.813
0.14592	260	1.1736	19.096
0.16122	100	1.1961	6.5711
0.16122	103.27	1.1958	6.7956
0.16122	106.53	1.1955	7.021
0.16122	109.8	1.1952	7.2471
0.16122	113.06	1.1949	7.474
0.16122	116.33	1.1946	7.7017
0.16122	119.59	1.1943	7.9302
0.16122	122.86	1.1939	8.1597
0.16122	126.12	1.1936	8.3902
0.16122	129.39	1.1933	8.6218
0.16122	132.65	1.1929	8.8544
0.16122	135.92	1.1926	9.0879
0.16122	139.18	1.1922	9.3225
0.16122	142.45	1.1919	9.558
0.16122	145.71	1.1915	9.7946
0.16122	148.98	1.1911	10.032
0.16122	152.24	1.1908	10.271
0.16122	155.51	1.1904	10.511
0.16122	158.78	1.19	10.752
0.16122	162.04	1.1896	10.995
0.16122	165.31	1.1892	11.238
0.16122	168.57	1.1888	11.483
0.16122	171.84	1.1884	11.729
0.16122	175.1	1.188	11.976
0.16122	178.37	1.1875	12.225
0.16122	181.63	1.1871	12.475
0.16122	184.9	1.1867	12.726
0.16122	188.16	1.1862	12.98
0.16122	191.43	1.1858	13.234
0.16122	194.69	1.1853	13.489
0.16122	197.96	1.1849	13.745
0.16122	201.22	1.1844	14.003
0.16122	204.49	1.1839	14.263
0.16122	207.76	1.1834	14.526
0.16122	211.02	1.183	14.791
0.16122	214.29	1.1825	15.057
0.16122	217.55	1.182	15.324
0.16122	220.82	1.1815	15.591
0.16122	224.08	1.1809	15.86
0.16122	227.35	1.1804	16.13
0.16122	230.61	1.1799	16.404
0.16122	233.88	1.1794	16.68
0.16122	237.14	1.1788	16.959
0.16122	240.41	1.1783	17.24
0.16122	243.67	1.1778	17.524
0.16122	246.94	1.1772	17.809
0.16122	250.2	1.1766	18.095
0.16122	253.47	1.1761	18.38
0.16122	256.73	1.1755	18.662
0.16122	260	1.1749	18.94
0.17653	100	1.1973	6.5234
0.17653	103.27	1.197	6.7463
0.17653	106.53	1.1967	6.9701
0.17653	109.8	1.1964	7.1946
0.17653	113.06	1.1961	7.4198
0.17653	116.33	1.1958	7.6459
0.17653	119.59	1.1955	7.8728
0.17653	122.86	1.1952	8.1007
0.17653	126.12	1.1948	8.3295
0.17653	129.39	1.1945	8.5594
0.17653	132.65	1.1942	8.7903
0.17653	135.92	1.1938	9.0222
0.17653	139.18	1.1935	9.2551
0.17653	142.45	1.1931	9.4889
0.17653	145.71	1.1928	9.7238
0.17653	148.98	1.1924	9.9598
0.17653	152.24	1.192	10.197
0.17653	155.51	1.1916	10.435
0.17653	158.78	1.1912	10.674
0.17653	162.04	1.1909	10.915
0.17653	165.31	1.1905	11.157
0.17653	168.57	1.1901	11.4
0.17653	171.84	1.1896	11.644
0.17653	175.1	1.1892	11.889
0.17653	178.37	1.1888	12.136
0.17653	181.63	1.1884	12.384
0.17653	184.9	1.1879	12.633
0.17653	188.16	1.1875	12.884
0.17653	191.43	1.1871	13.137
0.17653	194.69	1.1866	13.39
0.17653	197.96	1.1861	13.644
0.17653	201.22	1.1857	13.9
0.17653	204.49	1.1852	14.158
0.17653	207.76	1.1847	14.419
0.17653	211.02	1.1842	14.681
0.17653	214.29	1.1838	14.945
0.17653	217.55	1.1833	15.209
0.17653	220.82	1.1828	15.475
0.17653	224.08	1.1823	15.741
0.17653	227.35	1.1817	16.01
0.17653	230.61	1.1812	16.282
0.17653	233.88	1.1807	16.556
0.17653	237.14	1.1802	16.832
0.17653	240.41	1.1796	17.111
0.17653	243.67	1.1791	17.392
0.17653	246.94	1.1785	17.673
0.17653	250.2	1.178	17.955
0.17653	253.47	1.1774	18.235
0.17653	256.73	1.1768	18.513
0.17653	260	1.1763	18.786
0.19184	100	1.1985	6.4764
0.19184	103.27	1.1982	6.6977
0.19184	106.53	1.1979	6.9199
0.19184	109.8	1.1976	7.1428
0.19184	113.06	1.1973	7.3665
0.19184	116.33	1.197	7.591
0.19184	119.59	1.1967	7.8163
0.19184	122.86	1.1964	8.0426
0.19184	126.12	1.1961	8.2698
0.19184	129.39	1.1957	8.4981
0.19184	132.65	1.1954	8.7273
0.19184	135.92	1.1951	8.9575
0.19184	139.18	1.1947	9.1887
0.19184	142.45	1.1944	9.4209
0.19184	145.71	1.194	9.6541
0.19184	148.98	1.1936	9.8883
0.19184	152.24	1.1933	10.124
0.19184	155.51	1.1929	10.36
0.19184	158.78	1.1925	10.598
0.19184	162.04	1.1921	10.836
0.19184	165.31	1.1917	11.076
0.19184	168.57	1.1913	11.318
0.19184	171.84	1.1909	11.56
0.19184	175.1	1.1905	11.803
0.19184	178.37	1.1901	12.048
0.19184	181.63	1.1896	12.294
0.19184	184.9	1.1892	12.542
0.19184	188.16	1.1888	12.791
0.19184	191.43	1.1883	13.041
0.19184	194.69	1.1879	13.292
0.19184	197.96	1.1874	13.545
0.19184	201.22	1.187	13.799
0.19184	204.49	1.1865	14.055
0.19184	207.76	1.186	14.313
0.19184	211.02	1.1855	14.573
0.19184	214.29	1.1851	14.835
0.19184	217.55	1.1846	15.097
0.19184	220.82	1.1841	15.36
0.19184	224.08	1.1836	15.625
0.19184	227.35	1.183	15.893
0.19184	230.61	1.1825	16.162
0.19184	233.88	1.182	16.434
0.19184	237.14	1.1815	16.708
0.19184	240.41	1.1809	16.984
0.19184	243.67	1.1804	17.262
0.19184	246.94	1.1799	17.54
0.19184	250.2	1.1793	17.817
0.19184	253.47	1.1787	18.093
0.19184	256.73	1.1782	18.366
0.19184	260	1.1776	18.635
0.20714	100	1.1997	6.4301
0.20714	103.27	1.1994	6.6499
0.20714	106.53	1.1991	6.8705
0.20714	109.8	1.1989	7.0918
0.20714	113.06	1.1986	7.314
0.20714	116.33	1.1982	7.5369
0.20714	119.59	1.1979	7.7607
0.20714	122.86	1.1976	7.9853
0.20714	126.12	1.1973	8.211
0.20714	129.39	1.197	8.4376
0.20714	132.65	1.1966	8.6652
0.20714	135.92	1.1963	8.8938
0.20714	139.18	1.1959	9.1233
0.20714	142.45	1.1956	9.3538
0.20714	145.71	1.1952	9.5854
0.20714	148.98	1.1949	9.8179
0.20714	152.24	1.1945	10.052
0.20714	155.51	1.1941	10.286
0.20714	158.78	1.1937	10.522
0.20714	162.04	1.1933	10.759
0.20714	165.31	1.193	10.997
0.20714	168.57	1.1926	11.237
0.20714	171.84	1.1921	11.477
0.20714	175.1	1.1917	11.719
0.20714	178.37	1.1913	11.962
0.20714	181.63	1.1909	12.206
0.20714	184.9	1.1905	12.452
0.20714	188.16	1.19	12.699
0.20714	191.43	1.1896	12.947
0.20714	194.69	1.1891	13.196
0.20714	197.96	1.1887	13.447
0.20714	201.22	1.1882	13.699
0.20714	204.49	1.1878	13.953
0.20714	207.76	1.1873	14.209
0.20714	211.02	1.1868	14.467
0.20714	214.29	1.1863	14.726
0.20714	217.55	1.1858	14.986
0.20714	220.82	1.1854	15.248
0.20714	224.08	1.1849	15.511
0.20714	227.35	1.1843	15.777
0.20714	230.61	1.1838	16.045
0.20714	233.88	1.1833	16.314
0.20714	237.14	1.1828	16.586
0.20714	240.41	1.1823	16.859
0.20714	243.67	1.1817	17.134
0.20714	246.94	1.1812	17.408
0.20714	250.2	1.1806	17.681
0.20714	253.47	1.1801	17.953
0.20714	256.73	1.1795	18.221
0.20714	260	1.1789	18.485
0.22245	100	1.2009	6.3845
0.22245	103.27	1.2006	6.6028
0.22245	106.53	1.2003	6.8218
0.22245	109.8	1.2001	7.0416
0.22245	113.06	1.1998	7.2622
0.22245	116.33	1.1995	7.4836
0.22245	119.59	1.1991	7.7058
0.22245	122.86	1.1988	7.929
0.22245	126.12	1.1985	8.153
0.22245	129.39	1.1982	8.3781
0.22245	132.65	1.1978	8.6041
0.22245	135.92	1.1975	8.831
0.22245	139.18	1.1972	9.059
0.22245	142.45	1.1968	9.2878
0.22245	145.71	1.1965	9.5177
0.22245	148.98	1.1961	9.7486
0.22245	152.24	1.1957	9.9806
0.22245	155.51	1.1954	10.214
0.22245	158.78	1.195	10.448
0.22245	162.04	1.1946	10.683
0.22245	165.31	1.1942	10.92
0.22245	168.57	1.1938	11.157
0.22245	171.84	1.1934	11.396
0.22245	175.1	1.193	11.636
0.22245	178.37	1.1926	11.877
0.22245	181.63	1.1921	12.119
0.22245	184.9	1.1917	12.363
0.22245	188.16	1.1913	12.608
0.22245	191.43	1.1908	12.854
0.22245	194.69	1.1904	13.102
0.22245	197.96	1.19	13.351
0.22245	201.22	1.1895	13.601
0.22245	204.49	1.189	13.853
0.22245	207.76	1.1886	14.107
0.22245	211.02	1.1881	14.362
0.22245	214.29	1.1876	14.619
0.22245	217.55	1.1871	14.877
0.22245	220.82	1.1866	15.137
0.22245	224.08	1.1861	15.399
0.22245	227.35	1.1856	15.663
0.22245	230.61	1.1851	15.929
0.22245	233.88	1.1846	16.197
0.22245	237.14	1.1841	16.466
0.22245	240.41	1.1836	16.737
0.22245	243.67	1.183	17.007
0.22245	246.94	1.1825	17.278
0.22245	250.2	1.1819	17.548
0.22245	253.47	1.1814	17.815
0.22245	256.73	1.1808	18.079
0.22245	260	1.1803	18.338
0.23776	100	1.2021	6.3396
0.23776	103.27	1.2018	6.5563
0.23776	106.53	1.2015	6.7738
0.23776	109.8	1.2013	6.9921
0.23776	113.06	1.201	7.2112
0.23776	116.33	1.2007	7.4311
0.23776	119.59	1.2004	7.6518
0.23776	122.86	1.2	7.8734
0.23776	126.12	1.1997	8.0959
0.23776	129.39	1.1994	8.3194
0.23776	132.65	1.1991	8.5438
0.23776	135.92	1.1987	8.7692
0.23776	139.18	1.1984	8.9955
0.23776	142.45	1.198	9.2228
0.23776	145.71	1.1977	9.4511
0.23776	148.98	1.1973	9.6804
0.23776	152.24	1.1969	9.9107
0.23776	155.51	1.1966	10.142
0.23776	158.78	1.1962	10.375
0.23776	162.04	1.1958	10.608
0.23776	165.31	1.1954	10.843
0.23776	168.57	1.195	11.079
0.23776	171.84	1.1946	11.316
0.23776	175.1	1.1942	11.554
0.23776	178.37	1.1938	11.793
0.23776	181.63	1.1934	12.034
0.23776	184.9	1.193	12.276
0.23776	188.16	1.1925	12.519
0.23776	191.43	1.1921	12.763
0.23776	194.69	1.1917	13.009
0.23776	197.96	1.1912	13.256
0.23776	201.22	1.1908	13.505
0.23776	204.49	1.1903	13.755
0.23776	207.76	1.1898	14.006
0.23776	211.02	1.1894	14.259
0.23776	214.29	1.1889	14.514
0.23776	217.55	1.1884	14.77
0.23776	220.82	1.1879	15.029
0.23776	224.08	1.1874	15.289
0.23776	227.35	1.1869	15.551
0.23776	230.61	1.1864	15.816
0.23776	233.88	1.1859	16.081
0.23776	237.14	1.1854	16.348
0.23776	240.41	1.1849	16.616
0.23776	243.67	1.1843	16.883
0.23776	246.94	1.1838	17.15
0.23776	250.2	1.1832	17.416
0.23776	253.47	1.1827	17.679
0.23776	256.73	1.1821	17.939
0.23776	260	1.1816	18.193
0.25306	100	1.2033	6.2953
0.25306	103.27	1.203	6.5105
0.25306	106.53	1.2027	6.7265
0.25306	109.8	1.2025	6.9434
0.25306	113.06	1.2022	7.1609
0.25306	116.33	1.2019	7.3793
0.25306	119.59	1.2016	7.5986
0.25306	122.86	1.2012	7.8187
0.25306	126.12	1.2009	8.0397
0.25306	129.39	1.2006	8.2616
0.25306	132.65	1.2003	8.4845
0.25306	135.92	1.1999	8.7083
0.25306	139.18	1.1996	8.933
0.25306	142.45	1.1992	9.1587
0.25306	145.71	1.1989	9.3854
0.25306	148.98	1.1985	9.6131
0.25306	152.24	1.1982	9.8418
0.25306	155.51	1.1978	10.072
0.25306	158.78	1.1974	10.302
0.25306	162.04	1.197	10.534
0.25306	165.31	1.1967	10.767
0.25306	168.57	1.1963	11.002
0.25306	171.84	1.1959	11.237
0.25306	175.1	1.1955	11.473
0.25306	178.37	1.195	11.711
0.25306	181.63	1.1946	11.95
0.25306	184.9	1.1942	12.19
0.25306	188.16	1.1938	12.431
0.25306	191.43	1.1933	12.673
0.25306	194.69	1.1929	12.917
0.25306	197.96	1.1925	13.163
0.25306	201.22	1.192	13.41
0.25306	204.49	1.1916	13.658
0.25306	207.76	1.1911	13.907
0.25306	211.02	1.1906	14.158
0.25306	214.29	1.1902	14.41
0.25306	217.55	1.1897	14.665
0.25306	220.82	1.1892	14.922
0.25306	224.08	1.1887	15.181
0.25306	227.35	1.1882	15.441
0.25306	230.61	1.1877	15.704
0.25306	233.88	1.1872	15.967
0.25306	237.14	1.1867	16.232
0.25306	240.41	1.1861	16.497
0.25306	243.67	1.1856	16.761
0.25306	246.94	1.1851	17.025
0.25306	250.2	1.1845	17.286
0.25306	253.47	1.184	17.545
0.25306	256.73	1.1834	17.8
0.25306	260	1.1829	18.051
0.26837	100	1.2045	6.2516
0.26837	103.27	1.2042	6.4654
0.26837	106.53	1.2039	6.6799
0.26837	109.8	1.2036	6.8953
0.26837	113.06	1.2033	7.1114
0.26837	116.33	1.203	7.3283
0.26837	119.59	1.2027	7.5461
0.26837	122.86	1.2024	7.7647
0.26837	126.12	1.2021	7.9842
0.26837	129.39	1.2018	8.2047
0.26837	132.65	1.2015	8.426
0.26837	135.92	1.2011	8.6483
0.26837	139.18	1.2008	8.8715
0.26837	142.45	1.2005	9.0956
0.26837	145.71	1.2001	9.3207
0.26837	148.98	1.1997	9.5468
0.26837	152.24	1.1994	9.774
0.26837	155.51	1.199	10.002
0.26837	158.78	1.1986	10.231
0.26837	162.04	1.1983	10.462
0.26837	165.31	1.1979	10.693
0.26837	168.57	1.1975	10.925
0.26837	171.84	1.1971	11.159
0.26837	175.1	1.1967	11.394
0.26837	178.37	1.1963	11.63
0.26837	181.63	1.1959	11.867
0.26837	184.9	1.1954	12.105
0.26837	188.16	1.195	12.344
0.26837	191.43	1.1946	12.585
0.26837	194.69	1.1942	12.827
0.26837	197.96	1.1937	13.071
0.26837	201.22	1.1933	13.316
0.26837	204.49	1.1928	13.562
0.26837	207.76	1.1923	13.809
0.26837	211.02	1.1919	14.058
0.26837	214.29	1.1914	14.309
0.26837	217.55	1.1909	14.561
0.26837	220.82	1.1904	14.817
0.26837	224.08	1.19	15.074
0.26837	227.35	1.1895	15.333
0.26837	230.61	1.189	15.594
0.26837	233.88	1.1885	15.855
0.26837	237.14	1.1879	16.117
0.26837	240.41	1.1874	16.379
0.26837	243.67	1.1869	16.641
0.26837	246.94	1.1864	16.901
0.26837	250.2	1.1858	17.159
0.26837	253.47	1.1853	17.414
0.26837	256.73	1.1847	17.665
0.26837	260	1.1842	17.911
0.28367	100	1.2057	6.2086
0.28367	103.27	1.2054	6.4209
0.28367	106.53	1.2051	6.634
0.28367	109.8	1.2048	6.8479
0.28367	113.06	1.2045	7.0626
0.28367	116.33	1.2042	7.2781
0.28367	119.59	1.2039	7.4944
0.28367	122.86	1.2036	7.7116
0.28367	126.12	1.2033	7.9296
0.28367	129.39	1.203	8.1485
0.28367	132.65	1.2027	8.3683
0.28367	135.92	1.2023	8.5891
0.28367	139.18	1.202	8.8108
0.28367	142.45	1.2017	9.0334
0.28367	145.71	1.2013	9.257
0.28367	148.98	1.2009	9.4816
0.28367	152.24	1.2006	9.7071
0.28367	155.51	1.2002	9.9337
0.28367	158.78	1.1998	10.161
0.28367	162.04	1.1995	10.39
0.28367	165.31	1.1991	10.62
0.28367	168.57	1.1987	10.851
0.28367	171.84	1.1983	11.082
0.28367	175.1	1.1979	11.316
0.28367	178.37	1.1975	11.55
0.28367	181.63	1.1971	11.785
0.28367	184.9	1.1967	12.022
0.28367	188.16	1.1962	12.259
0.28367	191.43	1.1958	12.498
0.28367	194.69	1.1954	12.739
0.28367	197.96	1.1949	12.981
0.28367	201.22	1.1945	13.224
0.28367	204.49	1.194	13.468
0.28367	207.76	1.1936	13.713
0.28367	211.02	1.1931	13.96
0.28367	214.29	1.1927	14.208
0.28367	217.55	1.1922	14.459
0.28367	220.82	1.1917	14.713
0.28367	224.08	1.1912	14.969
0.28367	227.35	1.1907	15.226
0.28367	230.61	1.1902	15.485
0.28367	233.88	1.1897	15.745
0.28367	237.14	1.1892	16.004
0.28367	240.41	1.1887	16.264
0.28367	243.67	1.1882	16.522
0.28367	246.94	1.1877	16.779
0.28367	250.2	1.1871	17.033
0.28367	253.47	1.1866	17.284
0.28367	256.73	1.186	17.532
0.28367	260	1.1855	17.774
0.29898	100	1.2068	6.1661
0.29898	103.27	1.2066	6.377
0.29898	106.53	1.2063	6.5887
0.29898	109.8	1.206	6.8012
0.29898	113.06	1.2057	7.0145
0.29898	116.33	1.2054	7.2285
0.29898	119.59	1.2051	7.4435
0.29898	122.86	1.2048	7.6592
0.29898	126.12	1.2045	7.8757
0.29898	129.39	1.2042	8.0932
0.29898	132.65	1.2039	8.3115
0.29898	135.92	1.2035	8.5308
0.29898	139.18	1.2032	8.751
0.29898	142.45	1.2028	8.9721
0.29898	145.71	1.2025	9.1942
0.29898	148.98	1.2021	9.4172
0.29898	152.24	1.2018	9.6412
0.29898	155.51	1.2014	9.8663
0.29898	158.78	1.2011	10.092
0.29898	162.04	1.2007	10.319
0.29898	165.31	1.2003	10.548
0.29898	168.57	1.1999	10.777
0.29898	171.84	1.1995	11.007
0.29898	175.1	1.1991	11.238
0.29898	178.37	1.1987	11.471
0.29898	181.63	1.1983	11.705
0.29898	184.9	1.1979	11.94
0.29898	188.16	1.1975	12.175
0.29898	191.43	1.197	12.412
0.29898	194.69	1.1966	12.651
0.29898	197.96	1.1962	12.892
0.29898	201.22	1.1957	13.133
0.29898	204.49	1.1953	13.375
0.29898	207.76	1.1948	13.618
0.29898	211.02	1.1944	13.863
0.29898	214.29	1.1939	14.11
0.29898	217.55	1.1934	14.359
0.29898	220.82	1.193	14.611
0.29898	224.08	1.1925	14.865
0.29898	227.35	1.192	15.121
0.29898	230.61	1.1915	15.378
0.29898	233.88	1.191	15.635
0.29898	237.14	1.1905	15.893
0.29898	240.41	1.19	16.15
0.29898	243.67	1.1894	16.405
0.29898	246.94	1.1889	16.659
0.29898	250.2	1.1884	16.91
0.29898	253.47	1.1879	17.158
0.29898	256.73	1.1873	17.401
0.29898	260	1.1868	17.64
0.31429	100	1.208	6.1243
0.31429	103.27	1.2077	6.3338
0.31429	106.53	1.2074	6.5441
0.31429	109.8	1.2072	6.7552
0.31429	113.06	1.2069	6.967
0.31429	116.33	1.2066	7.1797
0.31429	119.59	1.2063	7.3932
0.31429	122.86	1.206	7.6075
0.31429	126.12	1.2057	7.8226
0.31429	129.39	1.2054	8.0386
0.31429	132.65	1.205	8.2555
0.31429	135.92	1.2047	8.4733
0.31429	139.18	1.2044	8.692
0.31429	142.45	1.204	8.9117
0.31429	145.71	1.2037	9.1323
0.31429	148.98	1.2033	9.3538
0.31429	152.24	1.203	9.5763
0.31429	155.51	1.2026	9.7998
0.31429	158.78	1.2023	10.024
0.31429	162.04	1.2019	10.25
0.31429	165.31	1.2015	10.476
0.31429	168.57	1.2011	10.704
0.31429	171.84	1.2007	10.933
0.31429	175.1	1.2003	11.162
0.31429	178.37	1.1999	11.394
0.31429	181.63	1.1995	11.626
0.31429	184.9	1.1991	11.859
0.31429	188.16	1.1987	12.092
0.31429	191.43	1.1983	12.328
0.31429	194.69	1.1978	12.565
0.31429	197.96	1.1974	12.804
0.31429	201.22	1.197	13.044
0.31429	204.49	1.1965	13.284
0.31429	207.76	1.1961	13.525
0.31429	211.02	1.1956	13.768
0.31429	214.29	1.1951	14.013
0.31429	217.55	1.1947	14.26
0.31429	220.82	1.1942	14.511
0.31429	224.08	1.1937	14.763
0.31429	227.35	1.1932	15.017
0.31429	230.61	1.1927	15.272
0.31429	233.88	1.1922	15.528
0.31429	237.14	1.1917	15.783
0.31429	240.41	1.1912	16.037
0.31429	243.67	1.1907	16.29
0.31429	246.94	1.1902	16.541
0.31429	250.2	1.1897	16.789
0.31429	253.47	1.1891	17.033
0.31429	256.73	1.1886	17.273
0.31429	260	1.1881	17.508
0.32959	100	1.2092	6.083
0.32959	103.27	1.2089	6.2912
0.32959	106.53	1.2086	6.5001
0.32959	109.8	1.2083	6.7098
0.32959	113.06	1.208	6.9203
0.32959	116.33	1.2078	7.1315
0.32959	119.59	1.2075	7.3437
0.32959	122.86	1.2072	7.5566
0.32959	126.12	1.2068	7.7703
0.32959	129.39	1.2065	7.9849
0.32959	132.65	1.2062	8.2003
0.32959	135.92	1.2059	8.4167
0.32959	139.18	1.2056	8.6339
0.32959	142.45	1.2052	8.8521
0.32959	145.71	1.2049	9.0712
0.32959	148.98	1.2045	9.2913
0.32959	152.24	1.2042	9.5123
0.32959	155.51	1.2038	9.7343
0.32959	158.78	1.2034	9.9573
0.32959	162.04	1.2031	10.181
0.32959	165.31	1.2027	10.406
0.32959	168.57	1.2023	10.632
0.32959	171.84	1.2019	10.859
0.32959	175.1	1.2015	11.088
0.32959	178.37	1.2011	11.317
0.32959	181.63	1.2007	11.548
0.32959	184.9	1.2003	11.779
0.32959	188.16	1.1999	12.011
0.32959	191.43	1.1995	12.245
0.32959	194.69	1.1991	12.48
0.32959	197.96	1.1986	12.717
0.32959	201.22	1.1982	12.955
0.32959	204.49	1.1977	13.194
0.32959	207.76	1.1973	13.433
0.32959	211.02	1.1968	13.674
0.32959	214.29	1.1964	13.917
0.32959	217.55	1.1959	14.163
0.32959	220.82	1.1954	14.412
0.32959	224.08	1.195	14.662
0.32959	227.35	1.1945	14.915
0.32959	230.61	1.194	15.168
0.32959	233.88	1.1935	15.421
0.32959	237.14	1.193	15.674
0.32959	240.41	1.1925	15.926
0.32959	243.67	1.192	16.177
0.32959	246.94	1.1915	16.425
0.32959	250.2	1.1909	16.67
0.32959	253.47	1.1904	16.911
0.32959	256.73	1.1899	17.148
0.32959	260	1.1893	17.38
0.3449	100	1.2103	6.0423
0.3449	103.27	1.21	6.2491
0.3449	106.53	1.2098	6.4567
0.3449	109.8	1.2095	6.665
0.3449	113.06	1.2092	6.8741
0.3449	116.33	1.2089	7.0841
0.3449	119.59	1.2086	7.2948
0.3449	122.86	1.2083	7.5063
0.3449	126.12	1.208	7.7186
0.3449	129.39	1.2077	7.9318
0.3449	132.65	1.2074	8.1459
0.3449	135.92	1.2071	8.3608
0.3449	139.18	1.2067	8.5766
0.3449	142.45	1.2064	8.7934
0.3449	145.71	1.2061	9.0111
0.3449	148.98	1.2057	9.2297
0.3449	152.24	1.2054	9.4492
0.3449	155.51	1.205	9.6697
0.3449	158.78	1.2046	9.8913
0.3449	162.04	1.2043	10.114
0.3449	165.31	1.2039	10.337
0.3449	168.57	1.2035	10.562
0.3449	171.84	1.2031	10.787
0.3449	175.1	1.2027	11.014
0.3449	178.37	1.2023	11.242
0.3449	181.63	1.2019	11.471
0.3449	184.9	1.2015	11.7
0.3449	188.16	1.2011	11.931
0.3449	191.43	1.2007	12.163
0.3449	194.69	1.2003	12.397
0.3449	197.96	1.1998	12.632
0.3449	201.22	1.1994	12.868
0.3449	204.49	1.199	13.105
0.3449	207.76	1.1985	13.342
0.3449	211.02	1.1981	13.581
0.3449	214.29	1.1976	13.823
0.3449	217.55	1.1971	14.067
0.3449	220.82	1.1967	14.314
0.3449	224.08	1.1962	14.563
0.3449	227.35	1.1957	14.814
0.3449	230.61	1.1952	15.065
0.3449	233.88	1.1947	15.316
0.3449	237.14	1.1942	15.567
0.3449	240.41	1.1937	15.817
0.3449	243.67	1.1932	16.065
0.3449	246.94	1.1927	16.31
0.3449	250.2	1.1922	16.553
0.3449	253.47	1.1917	16.791
0.3449	256.73	1.1911	17.026
0.3449	260	1.1906	17.255
0.3602	100	1.2115	6.0022
0.3602	103.27	1.2112	6.2077
0.3602	106.53	1.2109	6.4139
0.3602	109.8	1.2107	6.6209
0.3602	113.06	1.2104	6.8287
0.3602	116.33	1.2101	7.0372
0.3602	119.59	1.2098	7.2466
0.3602	122.86	1.2095	7.4568
0.3602	126.12	1.2092	7.6677
0.3602	129.39	1.2089	7.8795
0.3602	132.65	1.2086	8.0922
0.3602	135.92	1.2082	8.3057
0.3602	139.18	1.2079	8.5202
0.3602	142.45	1.2076	8.7355
0.3602	145.71	1.2072	8.9518
0.3602	148.98	1.2069	9.1689
0.3602	152.24	1.2065	9.387
0.3602	155.51	1.2062	9.6061
0.3602	158.78	1.2058	9.8261
0.3602	162.04	1.2054	10.047
0.3602	165.31	1.2051	10.269
0.3602	168.57	1.2047	10.492
0.3602	171.84	1.2043	10.716
0.3602	175.1	1.2039	10.941
0.3602	178.37	1.2035	11.167
0.3602	181.63	1.2031	11.395
0.3602	184.9	1.2027	11.623
0.3602	188.16	1.2023	11.852
0.3602	191.43	1.2019	12.082
0.3602	194.69	1.2015	12.315
0.3602	197.96	1.201	12.548
0.3602	201.22	1.2006	12.783
0.3602	204.49	1.2002	13.018
0.3602	207.76	1.1997	13.253
0.3602	211.02	1.1993	13.491
0.3602	214.29	1.1988	13.73
0.3602	217.55	1.1984	13.973
0.3602	220.82	1.1979	14.218
0.3602	224.08	1.1974	14.465
0.3602	227.35	1.1969	14.714
0.3602	230.61	1.1965	14.963
0.3602	233.88	1.196	15.212
0.3602	237.14	1.1955	15.461
0.3602	240.41	1.195	15.709
0.3602	243.67	1.1945	15.954
0.3602	246.94	1.194	16.198
0.3602	250.2	1.1934	16.438
0.3602	253.47	1.1929	16.674
0.3602	256.73	1.1924	16.906
0.3602	260	1.1919	17.133
0.37551	100	1.2126	5.9626
0.37551	103.27	1.2123	6.1668
0.37551	106.53	1.2121	6.3717
0.37551	109.8	1.2118	6.5773
0.37551	113.06	1.2115	6.7838
0.37551	116.33	1.2112	6.991
0.37551	119.59	1.2109	7.1991
0.37551	122.86	1.2106	7.4079
0.37551	126.12	1.2103	7.6175
0.37551	129.39	1.21	7.8279
0.37551	132.65	1.2097	8.0392
0.37551	135.92	1.2094	8.2514
0.37551	139.18	1.2091	8.4645
0.37551	142.45	1.2087	8.6784
0.37551	145.71	1.2084	8.8933
0.37551	148.98	1.2081	9.109
0.37551	152.24	1.2077	9.3257
0.37551	155.51	1.2073	9.5433
0.37551	158.78	1.207	9.7619
0.37551	162.04	1.2066	9.9815
0.37551	165.31	1.2063	10.202
0.37551	168.57	1.2059	10.423
0.37551	171.84	1.2055	10.646
0.37551	175.1	1.2051	10.87
0.37551	178.37	1.2047	11.094
0.37551	181.63	1.2043	11.32
0.37551	184.9	1.2039	11.546
0.37551	188.16	1.2035	11.774
0.37551	191.43	1.2031	12.003
0.37551	194.69	1.2027	12.233
0.37551	197.96	1.2022	12.466
0.37551	201.22	1.2018	12.698
0.37551	204.49	1.2014	12.931
0.37551	207.76	1.2009	13.165
0.37551	211.02	1.2005	13.401
0.37551	214.29	1.2	13.639
0.37551	217.55	1.1996	13.88
0.37551	220.82	1.1991	14.123
0.37551	224.08	1.1986	14.369
0.37551	227.35	1.1982	14.615
0.37551	230.61	1.1977	14.862
0.37551	233.88	1.1972	15.11
0.37551	237.14	1.1967	15.356
0.37551	240.41	1.1962	15.602
0.37551	243.67	1.1957	15.846
0.37551	246.94	1.1952	16.087
0.37551	250.2	1.1947	16.325
0.37551	253.47	1.1942	16.559
0.37551	256.73	1.1936	16.789
0.37551	260	1.1931	17.014
0.39082	100	1.2137	5.9236
0.39082	103.27	1.2135	6.1264
0.39082	106.53	1.2132	6.33
0.39082	109.8	1.2129	6.5344
0.39082	113.06	1.2127	6.7395
0.39082	116.33	1.2124	6.9455
0.39082	119.59	1.2121	7.1522
0.39082	122.86	1.2118	7.3597
0.39082	126.12	1.2115	7.5679
0.39082	129.39	1.2112	7.7771
0.39082	132.65	1.2109	7.987
0.39082	135.92	1.2105	8.1978
0.39082	139.18	1.2102	8.4095
0.39082	142.45	1.2099	8.6221
0.39082	145.71	1.2096	8.8356
0.39082	148.98	1.2092	9.0499
0.39082	152.24	1.2089	9.2652
0.39082	155.51	1.2085	9.4814
0.39082	158.78	1.2082	9.6986
0.39082	162.04	1.2078	9.9167
0.39082	165.31	1.2074	10.136
0.39082	168.57	1.2071	10.356
0.39082	171.84	1.2067	10.577
0.39082	175.1	1.2063	10.799
0.39082	178.37	1.2059	11.022
0.39082	181.63	1.2055	11.246
0.39082	184.9	1.2051	11.471
0.39082	188.16	1.2047	11.697
0.39082	191.43	1.2043	11.924
0.39082	194.69	1.2039	12.154
0.39082	197.96	1.2034	12.384
0.39082	201.22	1.203	12.615
0.39082	204.49	1.2026	12.846
0.39082	207.76	1.2021	13.079
0.39082	211.02	1.2017	13.313
0.39082	214.29	1.2012	13.549
0.39082	217.55	1.2008	13.788
0.39082	220.82	1.2003	14.03
0.39082	224.08	1.1999	14.273
0.39082	227.35	1.1994	14.518
0.39082	230.61	1.1989	14.763
0.39082	233.88	1.1984	15.008
0.39082	237.14	1.1979	15.253
0.39082	240.41	1.1974	15.497
0.39082	243.67	1.1969	15.739
0.39082	246.94	1.1964	15.978
0.39082	250.2	1.1959	16.214
0.39082	253.47	1.1954	16.447
0.39082	256.73	1.1949	16.675
0.39082	260	1.1943	16.898
0.40612	100	1.2149	5.8851
0.40612	103.27	1.2146	6.0866
0.40612	106.53	1.2144	6.289
0.40612	109.8	1.2141	6.4921
0.40612	113.06	1.2138	6.6959
0.40612	116.33	1.2135	6.9005
0.40612	119.59	1.2132	7.1059
0.40612	122.86	1.2129	7.3121
0.40612	126.12	1.2126	7.5191
0.40612	129.39	1.2123	7.7269
0.40612	132.65	1.212	7.9355
0.40612	135.92	1.2117	8.145
0.40612	139.18	1.2114	8.3553
0.40612	142.45	1.211	8.5666
0.40612	145.71	1.2107	8.7787
0.40612	148.98	1.2104	8.9916
0.40612	152.24	1.21	9.2055
0.40612	155.51	1.2097	9.4204
0.40612	158.78	1.2093	9.6362
0.40612	162.04	1.209	9.8529
0.40612	165.31	1.2086	10.07
0.40612	168.57	1.2082	10.289
0.40612	171.84	1.2078	10.509
0.40612	175.1	1.2075	10.729
0.40612	178.37	1.2071	10.951
0.40612	181.63	1.2067	11.174
0.40612	184.9	1.2063	11.397
0.40612	188.16	1.2059	11.621
0.40612	191.43	1.2055	11.847
0.40612	194.69	1.2051	12.075
0.40612	197.96	1.2046	12.304
0.40612	201.22	1.2042	12.533
0.40612	204.49	1.2038	12.763
0.40612	207.76	1.2033	12.993
0.40612	211.02	1.2029	13.226
0.40612	214.29	1.2024	13.461
0.40612	217.55	1.202	13.698
0.40612	220.82	1.2015	13.938
0.40612	224.08	1.2011	14.179
0.40612	227.35	1.2006	14.422
0.40612	230.61	1.2001	14.665
0.40612	233.88	1.1996	14.908
0.40612	237.14	1.1991	15.151
0.40612	240.41	1.1987	15.393
0.40612	243.67	1.1982	15.633
0.40612	246.94	1.1977	15.871
0.40612	250.2	1.1971	16.105
0.40612	253.47	1.1966	16.336
0.40612	256.73	1.1961	16.562
0.40612	260	1.1956	16.784
0.42143	100	1.216	5.8471
0.42143	103.27	1.2158	6.0474
0.42143	106.53	1.2155	6.2484
0.42143	109.8	1.2152	6.4503
0.42143	113.06	1.2149	6.6528
0.42143	116.33	1.2147	6.8562
0.42143	119.59	1.2144	7.0603
0.42143	122.86	1.2141	7.2652
0.42143	126.12	1.2138	7.4708
0.42143	129.39	1.2135	7.6773
0.42143	132.65	1.2132	7.8847
0.42143	135.92	1.2128	8.0928
0.42143	139.18	1.2125	8.3019
0.42143	142.45	1.2122	8.5118
0.42143	145.71	1.2119	8.7225
0.42143	148.98	1.2115	8.9342
0.42143	152.24	1.2112	9.1467
0.42143	155.51	1.2108	9.3602
0.42143	158.78	1.2105	9.5746
0.42143	162.04	1.2101	9.7899
0.42143	165.31	1.2098	10.006
0.42143	168.57	1.2094	10.223
0.42143	171.84	1.209	10.441
0.42143	175.1	1.2086	10.661
0.42143	178.37	1.2082	10.881
0.42143	181.63	1.2079	11.102
0.42143	184.9	1.2075	11.324
0.42143	188.16	1.2071	11.547
0.42143	191.43	1.2066	11.771
0.42143	194.69	1.2062	11.997
0.42143	197.96	1.2058	12.224
0.42143	201.22	1.2054	12.452
0.42143	204.49	1.205	12.68
0.42143	207.76	1.2045	12.909
0.42143	211.02	1.2041	13.14
0.42143	214.29	1.2036	13.373
0.42143	217.55	1.2032	13.609
0.42143	220.82	1.2027	13.847
0.42143	224.08	1.2023	14.086
0.42143	227.35	1.2018	14.327
0.42143	230.61	1.2013	14.568
0.42143	233.88	1.2008	14.81
0.42143	237.14	1.2004	15.051
0.42143	240.41	1.1999	15.291
0.42143	243.67	1.1994	15.529
0.42143	246.94	1.1989	15.765
0.42143	250.2	1.1984	15.998
0.42143	253.47	1.1979	16.227
0.42143	256.73	1.1973	16.452
0.42143	260	1.1968	16.672
0.43673	100	1.2171	5.8096
0.43673	103.27	1.2169	6.0086
0.43673	106.53	1.2166	6.2085
0.43673	109.8	1.2164	6.409
0.43673	113.06	1.2161	6.6103
0.43673	116.33	1.2158	6.8124
0.43673	119.59	1.2155	7.0153
0.43673	122.86	1.2152	7.2189
0.43673	126.12	1.2149	7.4233
0.43673	129.39	1.2146	7.6285
0.43673	132.65	1.2143	7.8345
0.43673	135.92	1.214	8.0414
0.43673	139.18	1.2137	8.2491
0.43673	142.45	1.2133	8.4577
0.43673	145.71	1.213	8.6672
0.43673	148.98	1.2127	8.8774
0.43673	152.24	1.2123	9.0886
0.43673	155.51	1.212	9.3008
0.43673	158.78	1.2116	9.5138
0.43673	162.04	1.2113	9.7278
0.43673	165.31	1.2109	9.9425
0.43673	168.57	1.2105	10.158
0.43673	171.84	1.2102	10.375
0.43673	175.1	1.2098	10.593
0.43673	178.37	1.2094	10.812
0.43673	181.63	1.209	11.031
0.43673	184.9	1.2086	11.252
0.43673	188.16	1.2082	11.473
0.43673	191.43	1.2078	11.696
0.43673	194.69	1.2074	11.92
0.43673	197.96	1.207	12.146
0.43673	201.22	1.2066	12.372
0.43673	204.49	1.2061	12.599
0.43673	207.76	1.2057	12.826
0.43673	211.02	1.2053	13.056
0.43673	214.29	1.2048	13.287
0.43673	217.55	1.2044	13.521
0.43673	220.82	1.2039	13.757
0.43673	224.08	1.2035	13.995
0.43673	227.35	1.203	14.234
0.43673	230.61	1.2025	14.473
0.43673	233.88	1.2021	14.713
0.43673	237.14	1.2016	14.952
0.43673	240.41	1.2011	15.19
0.43673	243.67	1.2006	15.426
0.43673	246.94	1.2001	15.661
0.43673	250.2	1.1996	15.892
0.43673	253.47	1.1991	16.12
0.43673	256.73	1.1986	16.343
0.43673	260	1.198	16.561
0.45204	100	1.2183	5.7725
0.45204	103.27	1.218	5.9704
0.45204	106.53	1.2177	6.169
0.45204	109.8	1.2175	6.3683
0.45204	113.06	1.2172	6.5684
0.45204	116.33	1.2169	6.7692
0.45204	119.59	1.2166	6.9708
0.45204	122.86	1.2163	7.1732
0.45204	126.12	1.2161	7.3763
0.45204	129.39	1.2157	7.5803
0.45204	132.65	1.2154	7.785
0.45204	135.92	1.2151	7.9907
0.45204	139.18	1.2148	8.1971
0.45204	142.45	1.2145	8.4044
0.45204	145.71	1.2142	8.6125
0.45204	148.98	1.2138	8.8215
0.45204	152.24	1.2135	9.0314
0.45204	155.51	1.2131	9.2422
0.45204	158.78	1.2128	9.4539
0.45204	162.04	1.2124	9.6665
0.45204	165.31	1.2121	9.8799
0.45204	168.57	1.2117	10.094
0.45204	171.84	1.2113	10.31
0.45204	175.1	1.211	10.526
0.45204	178.37	1.2106	10.743
0.45204	181.63	1.2102	10.962
0.45204	184.9	1.2098	11.181
0.45204	188.16	1.2094	11.4
0.45204	191.43	1.209	11.622
0.45204	194.69	1.2086	11.845
0.45204	197.96	1.2082	12.069
0.45204	201.22	1.2077	12.293
0.45204	204.49	1.2073	12.518
0.45204	207.76	1.2069	12.745
0.45204	211.02	1.2065	12.972
0.45204	214.29	1.206	13.203
0.45204	217.55	1.2056	13.435
0.45204	220.82	1.2051	13.669
0.45204	224.08	1.2047	13.905
0.45204	227.35	1.2042	14.142
0.45204	230.61	1.2037	14.379
0.45204	233.88	1.2033	14.617
0.45204	237.14	1.2028	14.854
0.45204	240.41	1.2023	15.091
0.45204	243.67	1.2018	15.325
0.45204	246.94	1.2013	15.558
0.45204	250.2	1.2008	15.788
0.45204	253.47	1.2003	16.014
0.45204	256.73	1.1998	16.235
0.45204	260	1.1993	16.451
0.46735	100	1.2194	5.736
0.46735	103.27	1.2191	5.9327
0.46735	106.53	1.2189	6.13
0.46735	109.8	1.2186	6.3282
0.46735	113.06	1.2183	6.527
0.46735	116.33	1.218	6.7266
0.46735	119.59	1.2178	6.927
0.46735	122.86	1.2175	7.1281
0.46735	126.12	1.2172	7.33
0.46735	129.39	1.2169	7.5327
0.46735	132.65	1.2166	7.7362
0.46735	135.92	1.2163	7.9406
0.46735	139.18	1.2159	8.1458
0.46735	142.45	1.2156	8.3518
0.46735	145.71	1.2153	8.5586
0.46735	148.98	1.215	8.7663
0.46735	152.24	1.2146	8.9749
0.46735	155.51	1.2143	9.1844
0.46735	158.78	1.2139	9.3947
0.46735	162.04	1.2136	9.606
0.46735	165.31	1.2132	9.818
0.46735	168.57	1.2129	10.031
0.46735	171.84	1.2125	10.245
0.46735	175.1	1.2121	10.46
0.46735	178.37	1.2117	10.676
0.46735	181.63	1.2113	10.893
0.46735	184.9	1.211	11.11
0.46735	188.16	1.2106	11.329
0.46735	191.43	1.2102	11.549
0.46735	194.69	1.2097	11.77
0.46735	197.96	1.2093	11.993
0.46735	201.22	1.2089	12.216
0.46735	204.49	1.2085	12.439
0.46735	207.76	1.2081	12.664
0.46735	211.02	1.2076	12.89
0.46735	214.29	1.2072	13.119
0.46735	217.55	1.2067	13.349
0.46735	220.82	1.2063	13.582
0.46735	224.08	1.2058	13.816
0.46735	227.35	1.2054	14.051
0.46735	230.61	1.2049	14.287
0.46735	233.88	1.2044	14.523
0.46735	237.14	1.204	14.758
0.46735	240.41	1.2035	14.993
0.46735	243.67	1.203	15.226
0.46735	246.94	1.2025	15.457
0.46735	250.2	1.202	15.685
0.46735	253.47	1.2015	15.909
0.46735	256.73	1.201	16.129
0.46735	260	1.2005	16.343
0.48265	100	1.2205	5.6999
0.48265	103.27	1.2202	5.8954
0.48265	106.53	1.22	6.0916
0.48265	109.8	1.2197	6.2885
0.48265	113.06	1.2194	6.4862
0.48265	116.33	1.2192	6.6846
0.48265	119.59	1.2189	6.8837
0.48265	122.86	1.2186	7.0836
0.48265	126.12	1.2183	7.2843
0.48265	129.39	1.218	7.4858
0.48265	132.65	1.2177	7.688
0.48265	135.92	1.2174	7.8912
0.48265	139.18	1.2171	8.0951
0.48265	142.45	1.2168	8.2999
0.48265	145.71	1.2164	8.5054
0.48265	148.98	1.2161	8.7118
0.48265	152.24	1.2158	8.9191
0.48265	155.51	1.2154	9.1273
0.48265	158.78	1.2151	9.3364
0.48265	162.04	1.2147	9.5463
0.48265	165.31	1.2144	9.757
0.48265	168.57	1.214	9.9686
0.48265	171.84	1.2136	10.181
0.48265	175.1	1.2133	10.395
0.48265	178.37	1.2129	10.61
0.48265	181.63	1.2125	10.825
0.48265	184.9	1.2121	11.041
0.48265	188.16	1.2117	11.258
0.48265	191.43	1.2113	11.477
0.48265	194.69	1.2109	11.697
0.48265	197.96	1.2105	11.918
0.48265	201.22	1.2101	12.139
0.48265	204.49	1.2097	12.361
0.48265	207.76	1.2092	12.584
0.48265	211.02	1.2088	12.809
0.48265	214.29	1.2084	13.036
0.48265	217.55	1.2079	13.265
0.48265	220.82	1.2075	13.496
0.48265	224.08	1.207	13.729
0.48265	227.35	1.2066	13.962
0.48265	230.61	1.2061	14.196
0.48265	233.88	1.2056	14.43
0.48265	237.14	1.2052	14.664
0.48265	240.41	1.2047	14.897
0.48265	243.67	1.2042	15.128
0.48265	246.94	1.2037	15.357
0.48265	250.2	1.2032	15.583
0.48265	253.47	1.2027	15.805
0.48265	256.73	1.2022	16.023
0.48265	260	1.2017	16.236
0.49796	100	1.2216	5.6643
0.49796	103.27	1.2213	5.8586
0.49796	106.53	1.2211	6.0536
0.49796	109.8	1.2208	6.2494
0.49796	113.06	1.2206	6.4458
0.49796	116.33	1.2203	6.643
0.49796	119.59	1.22	6.841
0.49796	122.86	1.2197	7.0397
0.49796	126.12	1.2194	7.2391
0.49796	129.39	1.2191	7.4394
0.49796	132.65	1.2188	7.6405
0.49796	135.92	1.2185	7.8424
0.49796	139.18	1.2182	8.0451
0.49796	142.45	1.2179	8.2486
0.49796	145.71	1.2176	8.4529
0.49796	148.98	1.2172	8.6581
0.49796	152.24	1.2169	8.8641
0.49796	155.51	1.2165	9.071
0.49796	158.78	1.2162	9.2788
0.49796	162.04	1.2159	9.4874
0.49796	165.31	1.2155	9.6968
0.49796	168.57	1.2151	9.9071
0.49796	171.84	1.2148	10.118
0.49796	175.1	1.2144	10.331
0.49796	178.37	1.214	10.544
0.49796	181.63	1.2136	10.758
0.49796	184.9	1.2133	10.973
0.49796	188.16	1.2129	11.188
0.49796	191.43	1.2125	11.406
0.49796	194.69	1.2121	11.624
0.49796	197.96	1.2117	11.844
0.49796	201.22	1.2112	12.064
0.49796	204.49	1.2108	12.284
0.49796	207.76	1.2104	12.506
0.49796	211.02	1.21	12.729
0.49796	214.29	1.2095	12.955
0.49796	217.55	1.2091	13.182
0.49796	220.82	1.2086	13.412
0.49796	224.08	1.2082	13.643
0.49796	227.35	1.2077	13.874
0.49796	230.61	1.2073	14.107
0.49796	233.88	1.2068	14.339
0.49796	237.14	1.2063	14.571
0.49796	240.41	1.2059	14.802
0.49796	243.67	1.2054	15.032
0.49796	246.94	1.2049	15.259
0.49796	250.2	1.2044	15.483
0.49796	253.47	1.2039	15.703
0.49796	256.73	1.2034	15.919
0.49796	260	1.2029	16.129
0.51327	100	1.2227	5.6292
0.51327	103.27	1.2224	5.8223
0.51327	106.53	1.2222	6.0162
0.51327	109.8	1.2219	6.2107
0.51327	113.06	1.2217	6.406
0.51327	116.33	1.2214	6.602
0.51327	119.59	1.2211	6.7988
0.51327	122.86	1.2208	6.9963
0.51327	126.12	1.2205	7.1946
0.51327	129.39	1.2202	7.3937
0.51327	132.65	1.2199	7.5936
0.51327	135.92	1.2196	7.7942
0.51327	139.18	1.2193	7.9957
0.51327	142.45	1.219	8.198
0.51327	145.71	1.2187	8.4011
0.51327	148.98	1.2183	8.605
0.51327	152.24	1.218	8.8098
0.51327	155.51	1.2177	9.0154
0.51327	158.78	1.2173	9.2219
0.51327	162.04	1.217	9.4293
0.51327	165.31	1.2166	9.6374
0.51327	168.57	1.2163	9.8464
0.51327	171.84	1.2159	10.056
0.51327	175.1	1.2155	10.267
0.51327	178.37	1.2152	10.479
0.51327	181.63	1.2148	10.692
0.51327	184.9	1.2144	10.905
0.51327	188.16	1.214	11.12
0.51327	191.43	1.2136	11.335
0.51327	194.69	1.2132	11.553
0.51327	197.96	1.2128	11.771
0.51327	201.22	1.2124	11.989
0.51327	204.49	1.212	12.208
0.51327	207.76	1.2116	12.428
0.51327	211.02	1.2111	12.65
0.51327	214.29	1.2107	12.874
0.51327	217.55	1.2103	13.1
0.51327	220.82	1.2098	13.328
0.51327	224.08	1.2094	13.558
0.51327	227.35	1.2089	13.788
0.51327	230.61	1.2085	14.019
0.51327	233.88	1.208	14.249
0.51327	237.14	1.2075	14.48
0.51327	240.41	1.207	14.709
0.51327	243.67	1.2066	14.936
0.51327	246.94	1.2061	15.162
0.51327	250.2	1.2056	15.384
0.51327	253.47	1.2051	15.602
0.51327	256.73	1.2046	15.816
0.51327	260	1.2041	16.024
0.52857	100	1.2238	5.5945
0.52857	103.27	1.2235	5.7865
0.52857	106.53	1.2233	5.9792
0.52857	109.8	1.223	6.1726
0.52857	113.06	1.2228	6.3667
0.52857	116.33	1.2225	6.5616
0.52857	119.59	1.2222	6.7572
0.52857	122.86	1.2219	6.9535
0.52857	126.12	1.2216	7.1506
0.52857	129.39	1.2213	7.3485
0.52857	132.65	1.221	7.5472
0.52857	135.92	1.2207	7.7467
0.52857	139.18	1.2204	7.947
0.52857	142.45	1.2201	8.1481
0.52857	145.71	1.2198	8.35
0.52857	148.98	1.2195	8.5526
0.52857	152.24	1.2191	8.7562
0.52857	155.51	1.2188	8.9606
0.52857	158.78	1.2185	9.1658
0.52857	162.04	1.2181	9.3719
0.52857	165.31	1.2178	9.5787
0.52857	168.57	1.2174	9.7865
0.52857	171.84	1.217	9.9951
0.52857	175.1	1.2167	10.205
0.52857	178.37	1.2163	10.415
0.52857	181.63	1.2159	10.627
0.52857	184.9	1.2155	10.839
0.52857	188.16	1.2151	11.052
0.52857	191.43	1.2148	11.266
0.52857	194.69	1.2144	11.482
0.52857	197.96	1.214	11.699
0.52857	201.22	1.2135	11.916
0.52857	204.49	1.2131	12.133
0.52857	207.76	1.2127	12.352
0.52857	211.02	1.2123	12.572
0.52857	214.29	1.2119	12.795
0.52857	217.55	1.2114	13.02
0.52857	220.82	1.211	13.246
0.52857	224.08	1.2105	13.474
0.52857	227.35	1.2101	13.702
0.52857	230.61	1.2096	13.932
0.52857	233.88	1.2092	14.161
0.52857	237.14	1.2087	14.389
0.52857	240.41	1.2082	14.617
0.52857	243.67	1.2077	14.842
0.52857	246.94	1.2073	15.066
0.52857	250.2	1.2068	15.286
0.52857	253.47	1.2063	15.502
0.52857	256.73	1.2058	15.714
0.52857	260	1.2053	15.921
0.54388	100	1.2249	5.5602
0.54388	103.27	1.2246	5.7511
0.54388	106.53	1.2244	5.9426
0.54388	109.8	1.2241	6.1349
0.54388	113.06	1.2239	6.3279
0.54388	116.33	1.2236	6.5216
0.54388	119.59	1.2233	6.7161
0.54388	122.86	1.223	6.9113
0.54388	126.12	1.2227	7.1072
0.54388	129.39	1.2225	7.3039
0.54388	132.65	1.2222	7.5015
0.54388	135.92	1.2218	7.6998
0.54388	139.18	1.2215	7.8989
0.54388	142.45	1.2212	8.0988
0.54388	145.71	1.2209	8.2995
0.54388	148.98	1.2206	8.5009
0.54388	152.24	1.2203	8.7033
0.54388	155.51	1.2199	8.9064
0.54388	158.78	1.2196	9.1104
0.54388	162.04	1.2192	9.3153
0.54388	165.31	1.2189	9.5209
0.54388	168.57	1.2185	9.7273
0.54388	171.84	1.2182	9.9347
0.54388	175.1	1.2178	10.143
0.54388	178.37	1.2174	10.352
0.54388	181.63	1.2171	10.562
0.54388	184.9	1.2167	10.773
0.54388	188.16	1.2163	10.985
0.54388	191.43	1.2159	11.198
0.54388	194.69	1.2155	11.412
0.54388	197.96	1.2151	11.628
0.54388	201.22	1.2147	11.843
0.54388	204.49	1.2143	12.059
0.54388	207.76	1.2139	12.277
0.54388	211.02	1.2134	12.495
0.54388	214.29	1.213	12.717
0.54388	217.55	1.2126	12.94
0.54388	220.82	1.2121	13.165
0.54388	224.08	1.2117	13.391
0.54388	227.35	1.2112	13.618
0.54388	230.61	1.2108	13.846
0.54388	233.88	1.2103	14.073
0.54388	237.14	1.2099	14.3
0.54388	240.41	1.2094	14.526
0.54388	243.67	1.2089	14.75
0.54388	246.94	1.2084	14.971
0.54388	250.2	1.208	15.19
0.54388	253.47	1.2075	15.404
0.54388	256.73	1.207	15.614
0.54388	260	1.2065	15.818
0.55918	100	1.226	5.5264
0.55918	103.27	1.2257	5.7161
0.55918	106.53	1.2255	5.9066
0.55918	109.8	1.2252	6.0977
0.55918	113.06	1.225	6.2896
0.55918	116.33	1.2247	6.4822
0.55918	119.59	1.2244	6.6755
0.55918	122.86	1.2241	6.8696
0.55918	126.12	1.2238	7.0643
0.55918	129.39	1.2236	7.2599
0.55918	132.65	1.2233	7.4563
0.55918	135.92	1.223	7.6534
0.55918	139.18	1.2226	7.8514
0.55918	142.45	1.2223	8.0501
0.55918	145.71	1.222	8.2496
0.55918	148.98	1.2217	8.4499
0.55918	152.24	1.2214	8.651
0.55918	155.51	1.221	8.853
0.55918	158.78	1.2207	9.0558
0.55918	162.04	1.2203	9.2593
0.55918	165.31	1.22	9.4637
0.55918	168.57	1.2196	9.6689
0.55918	171.84	1.2193	9.8751
0.55918	175.1	1.2189	10.082
0.55918	178.37	1.2186	10.29
0.55918	181.63	1.2182	10.499
0.55918	184.9	1.2178	10.708
0.55918	188.16	1.2174	10.918
0.55918	191.43	1.217	11.13
0.55918	194.69	1.2166	11.343
0.55918	197.96	1.2162	11.557
0.55918	201.22	1.2158	11.772
0.55918	204.49	1.2154	11.986
0.55918	207.76	1.215	12.202
0.55918	211.02	1.2146	12.42
0.55918	214.29	1.2142	12.639
0.55918	217.55	1.2137	12.861
0.55918	220.82	1.2133	13.085
0.55918	224.08	1.2128	13.309
0.55918	227.35	1.2124	13.535
0.55918	230.61	1.2119	13.761
0.55918	233.88	1.2115	13.987
0.55918	237.14	1.211	14.212
0.55918	240.41	1.2106	14.436
0.55918	243.67	1.2101	14.658
0.55918	246.94	1.2096	14.878
0.55918	250.2	1.2091	15.095
0.55918	253.47	1.2086	15.308
0.55918	256.73	1.2081	15.516
0.55918	260	1.2076	15.718
0.57449	100	1.2271	5.493
0.57449	103.27	1.2268	5.6816
0.57449	106.53	1.2266	5.8709
0.57449	109.8	1.2263	6.061
0.57449	113.06	1.226	6.2517
0.57449	116.33	1.2258	6.4432
0.57449	119.59	1.2255	6.6354
0.57449	122.86	1.2252	6.8283
0.57449	126.12	1.2249	7.022
0.57449	129.39	1.2246	7.2165
0.57449	132.65	1.2244	7.4117
0.57449	135.92	1.2241	7.6077
0.57449	139.18	1.2237	7.8045
0.57449	142.45	1.2234	8.002
0.57449	145.71	1.2231	8.2004
0.57449	148.98	1.2228	8.3995
0.57449	152.24	1.2225	8.5994
0.57449	155.51	1.2221	8.8002
0.57449	158.78	1.2218	9.0018
0.57449	162.04	1.2215	9.2042
0.57449	165.31	1.2211	9.4073
0.57449	168.57	1.2208	9.6113
0.57449	171.84	1.2204	9.8162
0.57449	175.1	1.22	10.022
0.57449	178.37	1.2197	10.229
0.57449	181.63	1.2193	10.436
0.57449	184.9	1.2189	10.644
0.57449	188.16	1.2185	10.853
0.57449	191.43	1.2182	11.064
0.57449	194.69	1.2178	11.275
0.57449	197.96	1.2174	11.488
0.57449	201.22	1.217	11.701
0.57449	204.49	1.2165	11.914
0.57449	207.76	1.2161	12.129
0.57449	211.02	1.2157	12.345
0.57449	214.29	1.2153	12.563
0.57449	217.55	1.2149	12.784
0.57449	220.82	1.2144	13.006
0.57449	224.08	1.214	13.229
0.57449	227.35	1.2135	13.453
0.57449	230.61	1.2131	13.677
0.57449	233.88	1.2126	13.902
0.57449	237.14	1.2122	14.125
0.57449	240.41	1.2117	14.348
0.57449	243.67	1.2112	14.568
0.57449	246.94	1.2108	14.786
0.57449	250.2	1.2103	15.001
0.57449	253.47	1.2098	15.213
0.57449	256.73	1.2093	15.419
0.57449	260	1.2088	15.62
0.5898	100	1.2281	5.46
0.5898	103.27	1.2279	5.6475
0.5898	106.53	1.2276	5.8358
0.5898	109.8	1.2274	6.0247
0.5898	113.06	1.2271	6.2144
0.5898	116.33	1.2269	6.4047
0.5898	119.59	1.2266	6.5958
0.5898	122.86	1.2263	6.7876
0.5898	126.12	1.226	6.9802
0.5898	129.39	1.2257	7.1735
0.5898	132.65	1.2254	7.3676
0.5898	135.92	1.2251	7.5625
0.5898	139.18	1.2248	7.7581
0.5898	142.45	1.2245	7.9546
0.5898	145.71	1.2242	8.1517
0.5898	148.98	1.2239	8.3497
0.5898	152.24	1.2236	8.5485
0.5898	155.51	1.2232	8.7481
0.5898	158.78	1.2229	8.9485
0.5898	162.04	1.2226	9.1497
0.5898	165.31	1.2222	9.3516
0.5898	168.57	1.2219	9.5544
0.5898	171.84	1.2215	9.758
0.5898	175.1	1.2212	9.9627
0.5898	178.37	1.2208	10.168
0.5898	181.63	1.2204	10.374
0.5898	184.9	1.22	10.581
0.5898	188.16	1.2197	10.789
0.5898	191.43	1.2193	10.998
0.5898	194.69	1.2189	11.208
0.5898	197.96	1.2185	11.42
0.5898	201.22	1.2181	11.631
0.5898	204.49	1.2177	11.843
0.5898	207.76	1.2173	12.056
0.5898	211.02	1.2169	12.271
0.5898	214.29	1.2164	12.488
0.5898	217.55	1.216	12.707
0.5898	220.82	1.2156	12.928
0.5898	224.08	1.2151	13.149
0.5898	227.35	1.2147	13.372
0.5898	230.61	1.2142	13.595
0.5898	233.88	1.2138	13.817
0.5898	237.14	1.2133	14.039
0.5898	240.41	1.2129	14.26
0.5898	243.67	1.2124	14.479
0.5898	246.94	1.2119	14.696
0.5898	250.2	1.2115	14.909
0.5898	253.47	1.211	15.119
0.5898	256.73	1.2105	15.324
0.5898	260	1.21	15.523
0.6051	100	1.2292	5.4274
0.6051	103.27	1.229	5.6138
0.6051	106.53	1.2287	5.801
0.6051	109.8	1.2285	5.9889
0.6051	113.06	1.2282	6.1774
0.6051	116.33	1.2279	6.3667
0.6051	119.59	1.2277	6.5567
0.6051	122.86	1.2274	6.7474
0.6051	126.12	1.2271	6.9389
0.6051	129.39	1.2268	7.1311
0.6051	132.65	1.2265	7.3241
0.6051	135.92	1.2262	7.5179
0.6051	139.18	1.2259	7.7124
0.6051	142.45	1.2256	7.9077
0.6051	145.71	1.2253	8.1037
0.6051	148.98	1.225	8.3005
0.6051	152.24	1.2247	8.4982
0.6051	155.51	1.2243	8.6966
0.6051	158.78	1.224	8.8959
0.6051	162.04	1.2237	9.0959
0.6051	165.31	1.2233	9.2966
0.6051	168.57	1.223	9.4982
0.6051	171.84	1.2226	9.7006
0.6051	175.1	1.2223	9.9041
0.6051	178.37	1.2219	10.108
0.6051	181.63	1.2215	10.313
0.6051	184.9	1.2212	10.519
0.6051	188.16	1.2208	10.725
0.6051	191.43	1.2204	10.933
0.6051	194.69	1.22	11.142
0.6051	197.96	1.2196	11.352
0.6051	201.22	1.2192	11.562
0.6051	204.49	1.2188	11.773
0.6051	207.76	1.2184	11.985
0.6051	211.02	1.218	12.198
0.6051	214.29	1.2176	12.414
0.6051	217.55	1.2171	12.631
0.6051	220.82	1.2167	12.851
0.6051	224.08	1.2163	13.071
0.6051	227.35	1.2158	13.292
0.6051	230.61	1.2154	13.513
0.6051	233.88	1.2149	13.734
0.6051	237.14	1.2145	13.954
0.6051	240.41	1.214	14.174
0.6051	243.67	1.2136	14.391
0.6051	246.94	1.2131	14.607
0.6051	250.2	1.2126	14.819
0.6051	253.47	1.2121	15.027
0.6051	256.73	1.2116	15.23
0.6051	260	1.2112	15.428
0.62041	100	1.2303	5.3951
0.62041	103.27	1.23	5.5806
0.62041	106.53	1.2298	5.7667
0.62041	109.8	1.2295	5.9535
0.62041	113.06	1.2293	6.141
0.62041	116.33	1.229	6.3292
0.62041	119.59	1.2288	6.5181
0.62041	122.86	1.2285	6.7077
0.62041	126.12	1.2282	6.8981
0.62041	129.39	1.2279	7.0892
0.62041	132.65	1.2276	7.2811
0.62041	135.92	1.2273	7.4738
0.62041	139.18	1.227	7.6672
0.62041	142.45	1.2267	7.8614
0.62041	145.71	1.2264	8.0563
0.62041	148.98	1.2261	8.252
0.62041	152.24	1.2258	8.4485
0.62041	155.51	1.2254	8.6458
0.62041	158.78	1.2251	8.8439
0.62041	162.04	1.2248	9.0427
0.62041	165.31	1.2244	9.2423
0.62041	168.57	1.2241	9.4427
0.62041	171.84	1.2237	9.644
0.62041	175.1	1.2234	9.8462
0.62041	178.37	1.223	10.049
0.62041	181.63	1.2226	10.253
0.62041	184.9	1.2223	10.457
0.62041	188.16	1.2219	10.662
0.62041	191.43	1.2215	10.869
0.62041	194.69	1.2211	11.077
0.62041	197.96	1.2207	11.286
0.62041	201.22	1.2203	11.494
0.62041	204.49	1.2199	11.704
0.62041	207.76	1.2195	11.914
0.62041	211.02	1.2191	12.126
0.62041	214.29	1.2187	12.341
0.62041	217.55	1.2183	12.557
0.62041	220.82	1.2178	12.774
0.62041	224.08	1.2174	12.993
0.62041	227.35	1.217	13.212
0.62041	230.61	1.2165	13.432
0.62041	233.88	1.2161	13.652
0.62041	237.14	1.2156	13.871
0.62041	240.41	1.2152	14.089
0.62041	243.67	1.2147	14.305
0.62041	246.94	1.2142	14.519
0.62041	250.2	1.2138	14.729
0.62041	253.47	1.2133	14.936
0.62041	256.73	1.2128	15.138
0.62041	260	1.2123	15.334
0.63571	100	1.2314	5.3633
0.63571	103.27	1.2311	5.5477
0.63571	106.53	1.2309	5.7328
0.63571	109.8	1.2306	5.9185
0.63571	113.06	1.2304	6.105
0.63571	116.33	1.2301	6.2921
0.63571	119.59	1.2298	6.4799
0.63571	122.86	1.2296	6.6685
0.63571	126.12	1.2293	6.8578
0.63571	129.39	1.229	7.0479
0.63571	132.65	1.2287	7.2387
0.63571	135.92	1.2284	7.4303
0.63571	139.18	1.2281	7.6226
0.63571	142.45	1.2278	7.8156
0.63571	145.71	1.2275	8.0094
0.63571	148.98	1.2272	8.204
0.63571	152.24	1.2269	8.3994
0.63571	155.51	1.2265	8.5956
0.63571	158.78	1.2262	8.7925
0.63571	162.04	1.2259	8.9902
0.63571	165.31	1.2255	9.1887
0.63571	168.57	1.2252	9.3879
0.63571	171.84	1.2248	9.588
0.63571	175.1	1.2245	9.789
0.63571	178.37	1.2241	9.9909
0.63571	181.63	1.2237	10.193
0.63571	184.9	1.2234	10.396
0.63571	188.16	1.223	10.6
0.63571	191.43	1.2226	10.806
0.63571	194.69	1.2222	11.012
0.63571	197.96	1.2218	11.22
0.63571	201.22	1.2214	11.427
0.63571	204.49	1.221	11.635
0.63571	207.76	1.2206	11.844
0.63571	211.02	1.2202	12.056
0.63571	214.29	1.2198	12.269
0.63571	217.55	1.2194	12.483
0.63571	220.82	1.219	12.699
0.63571	224.08	1.2185	12.916
0.63571	227.35	1.2181	13.134
0.63571	230.61	1.2177	13.352
0.63571	233.88	1.2172	13.57
0.63571	237.14	1.2168	13.788
0.63571	240.41	1.2163	14.004
0.63571	243.67	1.2158	14.219
0.63571	246.94	1.2154	14.432
0.63571	250.2	1.2149	14.641
0.63571	253.47	1.2144	14.847
0.63571	256.73	1.2139	15.048
0.63571	260	1.2135	15.243
0.65102	100	1.2324	5.3319
0.65102	103.27	1.2322	5.5152
0.65102	106.53	1.2319	5.6993
0.65102	109.8	1.2317	5.884
0.65102	113.06	1.2314	6.0694
0.65102	116.33	1.2312	6.2554
0.65102	119.59	1.2309	6.4422
0.65102	122.86	1.2306	6.6297
0.65102	126.12	1.2303	6.818
0.65102	129.39	1.2301	7.007
0.65102	132.65	1.2298	7.1967
0.65102	135.92	1.2295	7.3873
0.65102	139.18	1.2292	7.5785
0.65102	142.45	1.2289	7.7705
0.65102	145.71	1.2286	7.9632
0.65102	148.98	1.2283	8.1566
0.65102	152.24	1.2279	8.3509
0.65102	155.51	1.2276	8.546
0.65102	158.78	1.2273	8.7418
0.65102	162.04	1.2269	8.9384
0.65102	165.31	1.2266	9.1357
0.65102	168.57	1.2263	9.3337
0.65102	171.84	1.2259	9.5327
0.65102	175.1	1.2256	9.7325
0.65102	178.37	1.2252	9.9332
0.65102	181.63	1.2248	10.134
0.65102	184.9	1.2245	10.336
0.65102	188.16	1.2241	10.539
0.65102	191.43	1.2237	10.743
0.65102	194.69	1.2233	10.949
0.65102	197.96	1.2229	11.155
0.65102	201.22	1.2226	11.361
0.65102	204.49	1.2222	11.568
0.65102	207.76	1.2217	11.776
0.65102	211.02	1.2213	11.986
0.65102	214.29	1.2209	12.197
0.65102	217.55	1.2205	12.411
0.65102	220.82	1.2201	12.625
0.65102	224.08	1.2197	12.841
0.65102	227.35	1.2192	13.057
0.65102	230.61	1.2188	13.273
0.65102	233.88	1.2183	13.49
0.65102	237.14	1.2179	13.706
0.65102	240.41	1.2174	13.921
0.65102	243.67	1.217	14.135
0.65102	246.94	1.2165	14.346
0.65102	250.2	1.216	14.554
0.65102	253.47	1.2156	14.759
0.65102	256.73	1.2151	14.958
0.65102	260	1.2146	15.152
0.66633	100	1.2335	5.3008
0.66633	103.27	1.2332	5.4831
0.66633	106.53	1.233	5.6662
0.66633	109.8	1.2327	5.8499
0.66633	113.06	1.2325	6.0342
0.66633	116.33	1.2322	6.2192
0.66633	119.59	1.232	6.405
0.66633	122.86	1.2317	6.5914
0.66633	126.12	1.2314	6.7786
0.66633	129.39	1.2311	6.9666
0.66633	132.65	1.2308	7.1553
0.66633	135.92	1.2306	7.3448
0.66633	139.18	1.2303	7.5349
0.66633	142.45	1.23	7.7258
0.66633	145.71	1.2296	7.9175
0.66633	148.98	1.2293	8.1099
0.66633	152.24	1.229	8.303
0.66633	155.51	1.2287	8.497
0.66633	158.78	1.2284	8.6917
0.66633	162.04	1.228	8.8872
0.66633	165.31	1.2277	9.0833
0.66633	168.57	1.2274	9.2803
0.66633	171.84	1.227	9.4781
0.66633	175.1	1.2267	9.6768
0.66633	178.37	1.2263	9.8762
0.66633	181.63	1.2259	10.076
0.66633	184.9	1.2256	10.277
0.66633	188.16	1.2252	10.479
0.66633	191.43	1.2248	10.682
0.66633	194.69	1.2244	10.886
0.66633	197.96	1.224	11.09
0.66633	201.22	1.2237	11.295
0.66633	204.49	1.2233	11.501
0.66633	207.76	1.2229	11.708
0.66633	211.02	1.2225	11.916
0.66633	214.29	1.222	12.127
0.66633	217.55	1.2216	12.339
0.66633	220.82	1.2212	12.552
0.66633	224.08	1.2208	12.766
0.66633	227.35	1.2203	12.981
0.66633	230.61	1.2199	13.195
0.66633	233.88	1.2195	13.411
0.66633	237.14	1.219	13.625
0.66633	240.41	1.2186	13.839
0.66633	243.67	1.2181	14.051
0.66633	246.94	1.2176	14.261
0.66633	250.2	1.2172	14.469
0.66633	253.47	1.2167	14.672
0.66633	256.73	1.2162	14.87
0.66633	260	1.2158	15.063
0.68163	100	1.2345	5.2701
0.68163	103.27	1.2343	5.4514
0.68163	106.53	1.2341	5.6334
0.68163	109.8	1.2338	5.8161
0.68163	113.06	1.2335	5.9995
0.68163	116.33	1.2333	6.1835
0.68163	119.59	1.233	6.3682
0.68163	122.86	1.2328	6.5536
0.68163	126.12	1.2325	6.7398
0.68163	129.39	1.2322	6.9267
0.68163	132.65	1.2319	7.1144
0.68163	135.92	1.2316	7.3028
0.68163	139.18	1.2313	7.4919
0.68163	142.45	1.231	7.6817
0.68163	145.71	1.2307	7.8723
0.68163	148.98	1.2304	8.0636
0.68163	152.24	1.2301	8.2557
0.68163	155.51	1.2298	8.4486
0.68163	158.78	1.2294	8.6422
0.68163	162.04	1.2291	8.8366
0.68163	165.31	1.2288	9.0316
0.68163	168.57	1.2284	9.2275
0.68163	171.84	1.2281	9.4241
0.68163	175.1	1.2277	9.6217
0.68163	178.37	1.2274	9.82
0.68163	181.63	1.227	10.019
0.68163	184.9	1.2267	10.218
0.68163	188.16	1.2263	10.419
0.68163	191.43	1.2259	10.621
0.68163	194.69	1.2255	10.824
0.68163	197.96	1.2251	11.027
0.68163	201.22	1.2248	11.231
0.68163	204.49	1.2244	11.435
0.68163	207.76	1.224	11.641
0.68163	211.02	1.2236	11.848
0.68163	214.29	1.2231	12.057
0.68163	217.55	1.2227	12.268
0.68163	220.82	1.2223	12.48
0.68163	224.08	1.2219	12.692
0.68163	227.35	1.2215	12.905
0.68163	230.61	1.221	13.119
0.68163	233.88	1.2206	13.332
0.68163	237.14	1.2201	13.545
0.68163	240.41	1.2197	13.758
0.68163	243.67	1.2192	13.969
0.68163	246.94	1.2188	14.178
0.68163	250.2	1.2183	14.384
0.68163	253.47	1.2178	14.586
0.68163	256.73	1.2174	14.784
0.68163	260	1.2169	14.975
0.69694	100	1.2356	5.2397
0.69694	103.27	1.2353	5.4201
0.69694	106.53	1.2351	5.6011
0.69694	109.8	1.2349	5.7828
0.69694	113.06	1.2346	5.9651
0.69694	116.33	1.2343	6.1481
0.69694	119.59	1.2341	6.3318
0.69694	122.86	1.2338	6.5162
0.69694	126.12	1.2335	6.7013
0.69694	129.39	1.2333	6.8873
0.69694	132.65	1.233	7.0739
0.69694	135.92	1.2327	7.2613
0.69694	139.18	1.2324	7.4494
0.69694	142.45	1.2321	7.6382
0.69694	145.71	1.2318	7.8277
0.69694	148.98	1.2315	8.0179
0.69694	152.24	1.2312	8.209
0.69694	155.51	1.2308	8.4008
0.69694	158.78	1.2305	8.5933
0.69694	162.04	1.2302	8.7866
0.69694	165.31	1.2299	8.9806
0.69694	168.57	1.2295	9.1753
0.69694	171.84	1.2292	9.3709
0.69694	175.1	1.2288	9.5673
0.69694	178.37	1.2285	9.7644
0.69694	181.63	1.2281	9.9621
0.69694	184.9	1.2277	10.161
0.69694	188.16	1.2274	10.36
0.69694	191.43	1.227	10.561
0.69694	194.69	1.2266	10.762
0.69694	197.96	1.2262	10.964
0.69694	201.22	1.2259	11.167
0.69694	204.49	1.2255	11.37
0.69694	207.76	1.2251	11.574
0.69694	211.02	1.2247	11.781
0.69694	214.29	1.2243	11.989
0.69694	217.55	1.2238	12.198
0.69694	220.82	1.2234	12.408
0.69694	224.08	1.223	12.619
0.69694	227.35	1.2226	12.831
0.69694	230.61	1.2221	13.043
0.69694	233.88	1.2217	13.255
0.69694	237.14	1.2213	13.467
0.69694	240.41	1.2208	13.678
0.69694	243.67	1.2204	13.888
0.69694	246.94	1.2199	14.095
0.69694	250.2	1.2194	14.3
0.69694	253.47	1.219	14.502
0.69694	256.73	1.2185	14.698
0.69694	260	1.218	14.888
0.71224	100	1.2366	5.2098
0.71224	103.27	1.2364	5.3891
0.71224	106.53	1.2362	5.5692
0.71224	109.8	1.2359	5.7499
0.71224	113.06	1.2357	5.9312
0.71224	116.33	1.2354	6.1132
0.71224	119.59	1.2351	6.2958
0.71224	122.86	1.2349	6.4792
0.71224	126.12	1.2346	6.6634
0.71224	129.39	1.2343	6.8483
0.71224	132.65	1.234	7.0339
0.71224	135.92	1.2337	7.2203
0.71224	139.18	1.2335	7.4074
0.71224	142.45	1.2332	7.5951
0.71224	145.71	1.2329	7.7836
0.71224	148.98	1.2325	7.9728
0.71224	152.24	1.2322	8.1628
0.71224	155.51	1.2319	8.3535
0.71224	158.78	1.2316	8.545
0.71224	162.04	1.2313	8.7372
0.71224	165.31	1.2309	8.9301
0.71224	168.57	1.2306	9.1237
0.71224	171.84	1.2302	9.3182
0.71224	175.1	1.2299	9.5135
0.71224	178.37	1.2295	9.7095
0.71224	181.63	1.2292	9.9061
0.71224	184.9	1.2288	10.103
0.71224	188.16	1.2285	10.302
0.71224	191.43	1.2281	10.501
0.71224	194.69	1.2277	10.702
0.71224	197.96	1.2273	10.902
0.71224	201.22	1.2269	11.103
0.71224	204.49	1.2266	11.305
0.71224	207.76	1.2262	11.509
0.71224	211.02	1.2258	11.714
0.71224	214.29	1.2253	11.921
0.71224	217.55	1.2249	12.129
0.71224	220.82	1.2245	12.338
0.71224	224.08	1.2241	12.547
0.71224	227.35	1.2237	12.757
0.71224	230.61	1.2232	12.968
0.71224	233.88	1.2228	13.178
0.71224	237.14	1.2224	13.389
0.71224	240.41	1.2219	13.599
0.71224	243.67	1.2215	13.807
0.71224	246.94	1.221	14.014
0.71224	250.2	1.2206	14.218
0.71224	253.47	1.2201	14.418
0.71224	256.73	1.2196	14.614
0.71224	260	1.2191	14.803
0.72755	100	1.2377	5.1801
0.72755	103.27	1.2374	5.3585
0.72755	106.53	1.2372	5.5376
0.72755	109.8	1.237	5.7173
0.72755	113.06	1.2367	5.8976
0.72755	116.33	1.2364	6.0786
0.72755	119.59	1.2362	6.2603
0.72755	122.86	1.2359	6.4427
0.72755	126.12	1.2356	6.6258
0.72755	129.39	1.2354	6.8098
0.72755	132.65	1.2351	6.9944
0.72755	135.92	1.2348	7.1798
0.72755	139.18	1.2345	7.3658
0.72755	142.45	1.2342	7.5526
0.72755	145.71	1.2339	7.74
0.72755	148.98	1.2336	7.9282
0.72755	152.24	1.2333	8.1171
0.72755	155.51	1.233	8.3068
0.72755	158.78	1.2327	8.4973
0.72755	162.04	1.2323	8.6884
0.72755	165.31	1.232	8.8802
0.72755	168.57	1.2317	9.0728
0.72755	171.84	1.2313	9.2662
0.72755	175.1	1.231	9.4604
0.72755	178.37	1.2306	9.6553
0.72755	181.63	1.2303	9.8507
0.72755	184.9	1.2299	10.047
0.72755	188.16	1.2295	10.244
0.72755	191.43	1.2292	10.443
0.72755	194.69	1.2288	10.642
0.72755	197.96	1.2284	10.841
0.72755	201.22	1.228	11.041
0.72755	204.49	1.2276	11.242
0.72755	207.76	1.2272	11.444
0.72755	211.02	1.2268	11.648
0.72755	214.29	1.2264	11.854
0.72755	217.55	1.226	12.061
0.72755	220.82	1.2256	12.268
0.72755	224.08	1.2252	12.476
0.72755	227.35	1.2248	12.685
0.72755	230.61	1.2243	12.894
0.72755	233.88	1.2239	13.103
0.72755	237.14	1.2235	13.312
0.72755	240.41	1.223	13.521
0.72755	243.67	1.2226	13.728
0.72755	246.94	1.2221	13.934
0.72755	250.2	1.2217	14.137
0.72755	253.47	1.2212	14.336
0.72755	256.73	1.2207	14.53
0.72755	260	1.2203	14.718
0.74286	100	1.2387	5.1508
0.74286	103.27	1.2385	5.3283
0.74286	106.53	1.2382	5.5064
0.74286	109.8	1.238	5.6852
0.74286	113.06	1.2377	5.8645
0.74286	116.33	1.2375	6.0445
0.74286	119.59	1.2372	6.2252
0.74286	122.86	1.237	6.4066
0.74286	126.12	1.2367	6.5887
0.74286	129.39	1.2364	6.7717
0.74286	132.65	1.2361	6.9554
0.74286	135.92	1.2359	7.1398
0.74286	139.18	1.2356	7.3248
0.74286	142.45	1.2353	7.5105
0.74286	145.71	1.235	7.6969
0.74286	148.98	1.2347	7.8841
0.74286	152.24	1.2344	8.072
0.74286	155.51	1.234	8.2607
0.74286	158.78	1.2337	8.4501
0.74286	162.04	1.2334	8.6401
0.74286	165.31	1.2331	8.8309
0.74286	168.57	1.2327	9.0225
0.74286	171.84	1.2324	9.2148
0.74286	175.1	1.232	9.4079
0.74286	178.37	1.2317	9.6016
0.74286	181.63	1.2313	9.796
0.74286	184.9	1.231	9.9911
0.74286	188.16	1.2306	10.187
0.74286	191.43	1.2302	10.385
0.74286	194.69	1.2299	10.583
0.74286	197.96	1.2295	10.781
0.74286	201.22	1.2291	10.979
0.74286	204.49	1.2287	11.179
0.74286	207.76	1.2283	11.38
0.74286	211.02	1.2279	11.583
0.74286	214.29	1.2275	11.788
0.74286	217.55	1.2271	11.993
0.74286	220.82	1.2267	12.199
0.74286	224.08	1.2263	12.406
0.74286	227.35	1.2259	12.613
0.74286	230.61	1.2254	12.821
0.74286	233.88	1.225	13.028
0.74286	237.14	1.2246	13.236
0.74286	240.41	1.2241	13.444
0.74286	243.67	1.2237	13.65
0.74286	246.94	1.2232	13.854
0.74286	250.2	1.2228	14.056
0.74286	253.47	1.2223	14.254
0.74286	256.73	1.2219	14.448
0.74286	260	1.2214	14.635
0.75816	100	1.2397	5.1218
0.75816	103.27	1.2395	5.2984
0.75816	106.53	1.2393	5.4756
0.75816	109.8	1.239	5.6534
0.75816	113.06	1.2388	5.8317
0.75816	116.33	1.2385	6.0107
0.75816	119.59	1.2383	6.1905
0.75816	122.86	1.238	6.3709
0.75816	126.12	1.2377	6.5521
0.75816	129.39	1.2375	6.7341
0.75816	132.65	1.2372	6.9168
0.75816	135.92	1.2369	7.1002
0.75816	139.18	1.2366	7.2842
0.75816	142.45	1.2363	7.469
0.75816	145.71	1.236	7.6544
0.75816	148.98	1.2357	7.8405
0.75816	152.24	1.2354	8.0275
0.75816	155.51	1.2351	8.2151
0.75816	158.78	1.2348	8.4034
0.75816	162.04	1.2344	8.5924
0.75816	165.31	1.2341	8.7822
0.75816	168.57	1.2338	8.9727
0.75816	171.84	1.2334	9.164
0.75816	175.1	1.2331	9.356
0.75816	178.37	1.2328	9.5486
0.75816	181.63	1.2324	9.7419
0.75816	184.9	1.232	9.9359
0.75816	188.16	1.2317	10.131
0.75816	191.43	1.2313	10.328
0.75816	194.69	1.2309	10.524
0.75816	197.96	1.2306	10.721
0.75816	201.22	1.2302	10.919
0.75816	204.49	1.2298	11.117
0.75816	207.76	1.2294	11.317
0.75816	211.02	1.229	11.519
0.75816	214.29	1.2286	11.722
0.75816	217.55	1.2282	11.927
0.75816	220.82	1.2278	12.131
0.75816	224.08	1.2274	12.337
0.75816	227.35	1.227	12.542
0.75816	230.61	1.2265	12.748
0.75816	233.88	1.2261	12.955
0.75816	237.14	1.2257	13.161
0.75816	240.41	1.2252	13.367
0.75816	243.67	1.2248	13.573
0.75816	246.94	1.2243	13.776
0.75816	250.2	1.2239	13.977
0.75816	253.47	1.2234	14.174
0.75816	256.73	1.223	14.366
0.75816	260	1.2225	14.553
0.77347	100	1.2408	5.0932
0.77347	103.27	1.2405	5.2688
0.77347	106.53	1.2403	5.4451
0.77347	109.8	1.2401	5.6219
0.77347	113.06	1.2398	5.7993
0.77347	116.33	1.2396	5.9774
0.77347	119.59	1.2393	6.1561
0.77347	122.86	1.239	6.3356
0.77347	126.12	1.2388	6.5158
0.77347	129.39	1.2385	6.6969
0.77347	132.65	1.2382	6.8786
0.77347	135.92	1.2379	7.0611
0.77347	139.18	1.2377	7.2441
0.77347	142.45	1.2374	7.4279
0.77347	145.71	1.2371	7.6123
0.77347	148.98	1.2368	7.7975
0.77347	152.24	1.2365	7.9834
0.77347	155.51	1.2361	8.17
0.77347	158.78	1.2358	8.3573
0.77347	162.04	1.2355	8.5453
0.77347	165.31	1.2352	8.734
0.77347	168.57	1.2348	8.9236
0.77347	171.84	1.2345	9.1138
0.77347	175.1	1.2342	9.3048
0.77347	178.37	1.2338	9.4963
0.77347	181.63	1.2335	9.6884
0.77347	184.9	1.2331	9.8814
0.77347	188.16	1.2328	10.076
0.77347	191.43	1.2324	10.271
0.77347	194.69	1.232	10.467
0.77347	197.96	1.2316	10.662
0.77347	201.22	1.2313	10.858
0.77347	204.49	1.2309	11.056
0.77347	207.76	1.2305	11.255
0.77347	211.02	1.2301	11.456
0.77347	214.29	1.2297	11.658
0.77347	217.55	1.2293	11.861
0.77347	220.82	1.2289	12.064
0.77347	224.08	1.2285	12.268
0.77347	227.35	1.2281	12.472
0.77347	230.61	1.2276	12.677
0.77347	233.88	1.2272	12.882
0.77347	237.14	1.2268	13.088
0.77347	240.41	1.2263	13.292
0.77347	243.67	1.2259	13.496
0.77347	246.94	1.2254	13.698
0.77347	250.2	1.225	13.898
0.77347	253.47	1.2245	14.094
0.77347	256.73	1.2241	14.286
0.77347	260	1.2236	14.471
0.78878	100	1.2418	5.0648
0.78878	103.27	1.2416	5.2396
0.78878	106.53	1.2413	5.4149
0.78878	109.8	1.2411	5.5909
0.78878	113.06	1.2409	5.7673
0.78878	116.33	1.2406	5.9444
0.78878	119.59	1.2403	6.1222
0.78878	122.86	1.2401	6.3007
0.78878	126.12	1.2398	6.48
0.78878	129.39	1.2395	6.6601
0.78878	132.65	1.2393	6.8409
0.78878	135.92	1.239	7.0224
0.78878	139.18	1.2387	7.2045
0.78878	142.45	1.2384	7.3873
0.78878	145.71	1.2381	7.5707
0.78878	148.98	1.2378	7.7549
0.78878	152.24	1.2375	7.9398
0.78878	155.51	1.2372	8.1254
0.78878	158.78	1.2369	8.3117
0.78878	162.04	1.2366	8.4987
0.78878	165.31	1.2362	8.6864
0.78878	168.57	1.2359	8.875
0.78878	171.84	1.2356	9.0642
0.78878	175.1	1.2352	9.2541
0.78878	178.37	1.2349	9.4445
0.78878	181.63	1.2345	9.6355
0.78878	184.9	1.2342	9.8275
0.78878	188.16	1.2338	10.021
0.78878	191.43	1.2335	10.215
0.78878	194.69	1.2331	10.409
0.78878	197.96	1.2327	10.604
0.78878	201.22	1.2323	10.799
0.78878	204.49	1.232	10.995
0.78878	207.76	1.2316	11.193
0.78878	211.02	1.2312	11.393
0.78878	214.29	1.2308	11.594
0.78878	217.55	1.2304	11.796
0.78878	220.82	1.23	11.998
0.78878	224.08	1.2296	12.2
0.78878	227.35	1.2291	12.403
0.78878	230.61	1.2287	12.607
0.78878	233.88	1.2283	12.811
0.78878	237.14	1.2279	13.014
0.78878	240.41	1.2274	13.218
0.78878	243.67	1.227	13.421
0.78878	246.94	1.2265	13.622
0.78878	250.2	1.2261	13.82
0.78878	253.47	1.2256	14.016
0.78878	256.73	1.2252	14.206
0.78878	260	1.2247	14.391
0.80408	100	1.2428	5.0368
0.80408	103.27	1.2426	5.2107
0.80408	106.53	1.2424	5.3851
0.80408	109.8	1.2421	5.5601
0.80408	113.06	1.2419	5.7357
0.80408	116.33	1.2416	5.9118
0.80408	119.59	1.2414	6.0886
0.80408	122.86	1.2411	6.2662
0.80408	126.12	1.2409	6.4445
0.80408	129.39	1.2406	6.6237
0.80408	132.65	1.2403	6.8036
0.80408	135.92	1.24	6.9842
0.80408	139.18	1.2397	7.1653
0.80408	142.45	1.2394	7.3471
0.80408	145.71	1.2392	7.5296
0.80408	148.98	1.2389	7.7128
0.80408	152.24	1.2385	7.8967
0.80408	155.51	1.2382	8.0814
0.80408	158.78	1.2379	8.2667
0.80408	162.04	1.2376	8.4527
0.80408	165.31	1.2373	8.6394
0.80408	168.57	1.2369	8.8269
0.80408	171.84	1.2366	9.0152
0.80408	175.1	1.2363	9.204
0.80408	178.37	1.2359	9.3933
0.80408	181.63	1.2356	9.5833
0.80408	184.9	1.2352	9.7743
0.80408	188.16	1.2349	9.9665
0.80408	191.43	1.2345	10.16
0.80408	194.69	1.2341	10.353
0.80408	197.96	1.2338	10.546
0.80408	201.22	1.2334	10.74
0.80408	204.49	1.233	10.935
0.80408	207.76	1.2326	11.132
0.80408	211.02	1.2322	11.331
0.80408	214.29	1.2318	11.531
0.80408	217.55	1.2314	11.731
0.80408	220.82	1.231	11.932
0.80408	224.08	1.2306	12.133
0.80408	227.35	1.2302	12.335
0.80408	230.61	1.2298	12.537
0.80408	233.88	1.2294	12.74
0.80408	237.14	1.2289	12.942
0.80408	240.41	1.2285	13.145
0.80408	243.67	1.2281	13.346
0.80408	246.94	1.2276	13.546
0.80408	250.2	1.2272	13.744
0.80408	253.47	1.2267	13.938
0.80408	256.73	1.2263	14.128
0.80408	260	1.2258	14.312
0.81939	100	1.2438	5.0091
0.81939	103.27	1.2436	5.1821
0.81939	106.53	1.2434	5.3557
0.81939	109.8	1.2432	5.5298
0.81939	113.06	1.2429	5.7043
0.81939	116.33	1.2427	5.8795
0.81939	119.59	1.2424	6.0554
0.81939	122.86	1.2421	6.232
0.81939	126.12	1.2419	6.4095
0.81939	129.39	1.2416	6.5878
0.81939	132.65	1.2413	6.7668
0.81939	135.92	1.2411	6.9464
0.81939	139.18	1.2408	7.1266
0.81939	142.45	1.2405	7.3074
0.81939	145.71	1.2402	7.4889
0.81939	148.98	1.2399	7.6712
0.81939	152.24	1.2396	7.8542
0.81939	155.51	1.2393	8.0378
0.81939	158.78	1.239	8.2222
0.81939	162.04	1.2386	8.4072
0.81939	165.31	1.2383	8.5929
0.81939	168.57	1.238	8.7794
0.81939	171.84	1.2377	8.9667
0.81939	175.1	1.2373	9.1545
0.81939	178.37	1.237	9.3427
0.81939	181.63	1.2366	9.5317
0.81939	184.9	1.2363	9.7216
0.81939	188.16	1.2359	9.9129
0.81939	191.43	1.2356	10.105
0.81939	194.69	1.2352	10.297
0.81939	197.96	1.2348	10.489
0.81939	201.22	1.2345	10.682
0.81939	204.49	1.2341	10.876
0.81939	207.76	1.2337	11.072
0.81939	211.02	1.2333	11.27
0.81939	214.29	1.2329	11.468
0.81939	217.55	1.2325	11.668
0.81939	220.82	1.2321	11.867
0.81939	224.08	1.2317	12.067
0.81939	227.35	1.2313	12.268
0.81939	230.61	1.2309	12.469
0.81939	233.88	1.2305	12.67
0.81939	237.14	1.23	12.871
0.81939	240.41	1.2296	13.072
0.81939	243.67	1.2292	13.272
0.81939	246.94	1.2287	13.471
0.81939	250.2	1.2283	13.668
0.81939	253.47	1.2278	13.861
0.81939	256.73	1.2274	14.05
0.81939	260	1.2269	14.234
0.83469	100	1.2449	4.9817
0.83469	103.27	1.2446	5.1539
0.83469	106.53	1.2444	5.3266
0.83469	109.8	1.2442	5.4997
0.83469	113.06	1.2439	5.6734
0.83469	116.33	1.2437	5.8476
0.83469	119.59	1.2434	6.0226
0.83469	122.86	1.2432	6.1983
0.83469	126.12	1.2429	6.3749
0.83469	129.39	1.2426	6.5523
0.83469	132.65	1.2424	6.7304
0.83469	135.92	1.2421	6.909
0.83469	139.18	1.2418	7.0883
0.83469	142.45	1.2415	7.2681
0.83469	145.71	1.2412	7.4487
0.83469	148.98	1.2409	7.63
0.83469	152.24	1.2406	7.812
0.83469	155.51	1.2403	7.9948
0.83469	158.78	1.24	8.1781
0.83469	162.04	1.2397	8.3622
0.83469	165.31	1.2394	8.547
0.83469	168.57	1.239	8.7325
0.83469	171.84	1.2387	8.9188
0.83469	175.1	1.2384	9.1055
0.83469	178.37	1.238	9.2927
0.83469	181.63	1.2377	9.4806
0.83469	184.9	1.2373	9.6696
0.83469	188.16	1.237	9.8599
0.83469	191.43	1.2366	10.051
0.83469	194.69	1.2363	10.242
0.83469	197.96	1.2359	10.433
0.83469	201.22	1.2355	10.625
0.83469	204.49	1.2351	10.818
0.83469	207.76	1.2348	11.012
0.83469	211.02	1.2344	11.209
0.83469	214.29	1.234	11.407
0.83469	217.55	1.2336	11.605
0.83469	220.82	1.2332	11.803
0.83469	224.08	1.2328	12.002
0.83469	227.35	1.2324	12.201
0.83469	230.61	1.2319	12.401
0.83469	233.88	1.2315	12.601
0.83469	237.14	1.2311	12.801
0.83469	240.41	1.2307	13
0.83469	243.67	1.2302	13.199
0.83469	246.94	1.2298	13.397
0.83469	250.2	1.2294	13.593
0.83469	253.47	1.2289	13.785
0.83469	256.73	1.2285	13.974
0.83469	260	1.228	14.158
0.85	100	1.2459	4.9546
0.85	103.27	1.2457	5.126
0.85	106.53	1.2454	5.2978
0.85	109.8	1.2452	5.4701
0.85	113.06	1.2449	5.6428
0.85	116.33	1.2447	5.8161
0.85	119.59	1.2444	5.9901
0.85	122.86	1.2442	6.1649
0.85	126.12	1.2439	6.3406
0.85	129.39	1.2437	6.5171
0.85	132.65	1.2434	6.6943
0.85	135.92	1.2431	6.8721
0.85	139.18	1.2428	7.0504
0.85	142.45	1.2425	7.2293
0.85	145.71	1.2422	7.4089
0.85	148.98	1.242	7.5893
0.85	152.24	1.2417	7.7704
0.85	155.51	1.2413	7.9522
0.85	158.78	1.241	8.1346
0.85	162.04	1.2407	8.3177
0.85	165.31	1.2404	8.5015
0.85	168.57	1.2401	8.6861
0.85	171.84	1.2397	8.8713
0.85	175.1	1.2394	9.0571
0.85	178.37	1.2391	9.2433
0.85	181.63	1.2387	9.4302
0.85	184.9	1.2384	9.6182
0.85	188.16	1.238	9.8075
0.85	191.43	1.2377	9.9976
0.85	194.69	1.2373	10.188
0.85	197.96	1.2369	10.378
0.85	201.22	1.2366	10.568
0.85	204.49	1.2362	10.76
0.85	207.76	1.2358	10.954
0.85	211.02	1.2354	11.149
0.85	214.29	1.235	11.346
0.85	217.55	1.2346	11.543
0.85	220.82	1.2342	11.74
0.85	224.08	1.2338	11.937
0.85	227.35	1.2334	12.135
0.85	230.61	1.233	12.334
0.85	233.88	1.2326	12.532
0.85	237.14	1.2322	12.731
0.85	240.41	1.2317	12.929
0.85	243.67	1.2313	13.127
0.85	246.94	1.2309	13.324
0.85	250.2	1.2304	13.519
0.85	253.47	1.23	13.71
0.85	256.73	1.2295	13.899
0.85	260	1.2291	14.082
