Press (GPa)	Temp (K)	Density (g/cm^-3)	dT/dP (K/GPa)
0.34	150	1.263	11.123
0.34	152.65	1.2626	11.34
0.34	155.31	1.2622	11.559
0.34	157.96	1.2619	11.778
0.34	160.61	1.2614	11.998
0.34	163.27	1.261	12.219
0.34	165.92	1.2606	12.441
0.34	168.57	1.2602	12.665
0.34	171.22	1.2598	12.889
0.34	173.88	1.2594	13.115
0.34	176.53	1.2589	13.342
0.34	179.18	1.2585	13.57
0.34	181.84	1.2581	13.8
0.34	184.49	1.2576	14.03
0.34	187.14	1.2572	14.262
0.34	189.8	1.2567	14.494
0.34	192.45	1.2562	14.728
0.34	195.1	1.2558	14.964
0.34	197.76	1.2553	15.2
0.34	200.41	1.2548	15.438
0.34	203.06	1.2543	15.678
0.34	205.71	1.2538	15.919
0.34	208.37	1.2533	16.161
0.34	211.02	1.2528	16.405
0.34	213.67	1.2523	16.65
0.34	216.33	1.2518	16.896
0.34	218.98	1.2513	17.144
0.34	221.63	1.2508	17.394
0.34	224.29	1.2503	17.645
0.34	226.94	1.2497	17.897
0.34	229.59	1.2492	18.151
0.34	232.24	1.2486	18.407
0.34	234.9	1.2481	18.665
0.34	237.55	1.2475	18.924
0.34	240.2	1.247	19.185
0.34	242.86	1.2464	19.448
0.34	245.51	1.2458	19.713
0.34	248.16	1.2453	19.979
0.34	250.82	1.2447	20.247
0.34	253.47	1.2441	20.517
0.34	256.12	1.2435	20.788
0.34	258.78	1.2429	21.062
0.34	261.43	1.2423	21.337
0.34	264.08	1.2417	21.615
0.34	266.73	1.2411	21.894
0.34	269.39	1.2404	22.176
0.34	272.04	1.2398	22.459
0.34	274.69	1.2392	22.745
0.34	277.35	1.2385	23.033
0.34	280	1.2379	23.324
0.34735	150	1.2637	11.084
0.34735	152.65	1.2633	11.3
0.34735	155.31	1.2629	11.518
0.34735	157.96	1.2625	11.736
0.34735	160.61	1.2621	11.955
0.34735	163.27	1.2617	12.176
0.34735	165.92	1.2613	12.397
0.34735	168.57	1.2609	12.619
0.34735	171.22	1.2605	12.843
0.34735	173.88	1.26	13.068
0.34735	176.53	1.2596	13.294
0.34735	179.18	1.2592	13.521
0.34735	181.84	1.2587	13.75
0.34735	184.49	1.2583	13.979
0.34735	187.14	1.2578	14.21
0.34735	189.8	1.2574	14.442
0.34735	192.45	1.2569	14.675
0.34735	195.1	1.2564	14.909
0.34735	197.76	1.256	15.145
0.34735	200.41	1.2555	15.382
0.34735	203.06	1.255	15.62
0.34735	205.71	1.2545	15.86
0.34735	208.37	1.254	16.101
0.34735	211.02	1.2535	16.344
0.34735	213.67	1.253	16.588
0.34735	216.33	1.2525	16.834
0.34735	218.98	1.252	17.081
0.34735	221.63	1.2515	17.329
0.34735	224.29	1.2509	17.579
0.34735	226.94	1.2504	17.83
0.34735	229.59	1.2499	18.083
0.34735	232.24	1.2493	18.338
0.34735	234.9	1.2488	18.594
0.34735	237.55	1.2482	18.853
0.34735	240.2	1.2477	19.112
0.34735	242.86	1.2471	19.374
0.34735	245.51	1.2465	19.637
0.34735	248.16	1.246	19.902
0.34735	250.82	1.2454	20.169
0.34735	253.47	1.2448	20.438
0.34735	256.12	1.2442	20.708
0.34735	258.78	1.2436	20.98
0.34735	261.43	1.243	21.254
0.34735	264.08	1.2424	21.53
0.34735	266.73	1.2418	21.808
0.34735	269.39	1.2412	22.089
0.34735	272.04	1.2405	22.371
0.34735	274.69	1.2399	22.655
0.34735	277.35	1.2393	22.942
0.34735	280	1.2386	23.231
0.35469	150	1.2643	11.045
0.35469	152.65	1.2639	11.26
0.35469	155.31	1.2636	11.477
0.35469	157.96	1.2632	11.695
0.35469	160.61	1.2628	11.913
0.35469	163.27	1.2624	12.133
0.35469	165.92	1.2619	12.353
0.35469	168.57	1.2615	12.575
0.35469	171.22	1.2611	12.798
0.35469	173.88	1.2607	13.022
0.35469	176.53	1.2603	13.247
0.35469	179.18	1.2598	13.473
0.35469	181.84	1.2594	13.701
0.35469	184.49	1.2589	13.929
0.35469	187.14	1.2585	14.159
0.35469	189.8	1.258	14.39
0.35469	192.45	1.2576	14.622
0.35469	195.1	1.2571	14.855
0.35469	197.76	1.2566	15.09
0.35469	200.41	1.2562	15.326
0.35469	203.06	1.2557	15.564
0.35469	205.71	1.2552	15.802
0.35469	208.37	1.2547	16.043
0.35469	211.02	1.2542	16.284
0.35469	213.67	1.2537	16.527
0.35469	216.33	1.2532	16.772
0.35469	218.98	1.2527	17.018
0.35469	221.63	1.2522	17.265
0.35469	224.29	1.2516	17.514
0.35469	226.94	1.2511	17.764
0.35469	229.59	1.2506	18.016
0.35469	232.24	1.25	18.269
0.35469	234.9	1.2495	18.525
0.35469	237.55	1.2489	18.782
0.35469	240.2	1.2484	19.04
0.35469	242.86	1.2478	19.301
0.35469	245.51	1.2472	19.563
0.35469	248.16	1.2467	19.826
0.35469	250.82	1.2461	20.092
0.35469	253.47	1.2455	20.359
0.35469	256.12	1.2449	20.628
0.35469	258.78	1.2443	20.899
0.35469	261.43	1.2437	21.172
0.35469	264.08	1.2431	21.447
0.35469	266.73	1.2425	21.723
0.35469	269.39	1.2419	22.002
0.35469	272.04	1.2412	22.283
0.35469	274.69	1.2406	22.566
0.35469	277.35	1.24	22.851
0.35469	280	1.2393	23.139
0.36204	150	1.265	11.006
0.36204	152.65	1.2646	11.221
0.36204	155.31	1.2642	11.437
0.36204	157.96	1.2638	11.654
0.36204	160.61	1.2634	11.871
0.36204	163.27	1.263	12.09
0.36204	165.92	1.2626	12.309
0.36204	168.57	1.2622	12.53
0.36204	171.22	1.2618	12.752
0.36204	173.88	1.2613	12.975
0.36204	176.53	1.2609	13.2
0.36204	179.18	1.2605	13.425
0.36204	181.84	1.26	13.652
0.36204	184.49	1.2596	13.88
0.36204	187.14	1.2591	14.108
0.36204	189.8	1.2587	14.338
0.36204	192.45	1.2582	14.57
0.36204	195.1	1.2578	14.802
0.36204	197.76	1.2573	15.036
0.36204	200.41	1.2568	15.271
0.36204	203.06	1.2563	15.507
0.36204	205.71	1.2559	15.745
0.36204	208.37	1.2554	15.984
0.36204	211.02	1.2549	16.225
0.36204	213.67	1.2544	16.467
0.36204	216.33	1.2539	16.71
0.36204	218.98	1.2534	16.955
0.36204	221.63	1.2528	17.201
0.36204	224.29	1.2523	17.449
0.36204	226.94	1.2518	17.698
0.36204	229.59	1.2513	17.949
0.36204	232.24	1.2507	18.201
0.36204	234.9	1.2502	18.455
0.36204	237.55	1.2496	18.711
0.36204	240.2	1.2491	18.969
0.36204	242.86	1.2485	19.228
0.36204	245.51	1.2479	19.489
0.36204	248.16	1.2474	19.751
0.36204	250.82	1.2468	20.015
0.36204	253.47	1.2462	20.281
0.36204	256.12	1.2456	20.549
0.36204	258.78	1.245	20.819
0.36204	261.43	1.2444	21.09
0.36204	264.08	1.2438	21.364
0.36204	266.73	1.2432	21.639
0.36204	269.39	1.2426	21.916
0.36204	272.04	1.242	22.196
0.36204	274.69	1.2413	22.478
0.36204	277.35	1.2407	22.761
0.36204	280	1.2401	23.047
0.36939	150	1.2656	10.968
0.36939	152.65	1.2652	11.182
0.36939	155.31	1.2648	11.397
0.36939	157.96	1.2645	11.613
0.36939	160.61	1.2641	11.83
0.36939	163.27	1.2637	12.047
0.36939	165.92	1.2633	12.266
0.36939	168.57	1.2628	12.486
0.36939	171.22	1.2624	12.707
0.36939	173.88	1.262	12.93
0.36939	176.53	1.2616	13.153
0.36939	179.18	1.2611	13.378
0.36939	181.84	1.2607	13.603
0.36939	184.49	1.2603	13.83
0.36939	187.14	1.2598	14.058
0.36939	189.8	1.2594	14.287
0.36939	192.45	1.2589	14.517
0.36939	195.1	1.2584	14.749
0.36939	197.76	1.258	14.982
0.36939	200.41	1.2575	15.216
0.36939	203.06	1.257	15.451
0.36939	205.71	1.2565	15.688
0.36939	208.37	1.256	15.926
0.36939	211.02	1.2556	16.166
0.36939	213.67	1.2551	16.407
0.36939	216.33	1.2545	16.649
0.36939	218.98	1.254	16.893
0.36939	221.63	1.2535	17.138
0.36939	224.29	1.253	17.385
0.36939	226.94	1.2525	17.633
0.36939	229.59	1.2519	17.882
0.36939	232.24	1.2514	18.134
0.36939	234.9	1.2509	18.387
0.36939	237.55	1.2503	18.641
0.36939	240.2	1.2498	18.898
0.36939	242.86	1.2492	19.156
0.36939	245.51	1.2486	19.415
0.36939	248.16	1.2481	19.677
0.36939	250.82	1.2475	19.94
0.36939	253.47	1.2469	20.204
0.36939	256.12	1.2463	20.471
0.36939	258.78	1.2457	20.739
0.36939	261.43	1.2451	21.009
0.36939	264.08	1.2445	21.282
0.36939	266.73	1.2439	21.556
0.36939	269.39	1.2433	21.832
0.36939	272.04	1.2427	22.11
0.36939	274.69	1.2421	22.39
0.36939	277.35	1.2414	22.672
0.36939	280	1.2408	22.957
0.37673	150	1.2663	10.93
0.37673	152.65	1.2659	11.143
0.37673	155.31	1.2655	11.357
0.37673	157.96	1.2651	11.572
0.37673	160.61	1.2647	11.788
0.37673	163.27	1.2643	12.005
0.37673	165.92	1.2639	12.223
0.37673	168.57	1.2635	12.442
0.37673	171.22	1.2631	12.663
0.37673	173.88	1.2627	12.884
0.37673	176.53	1.2622	13.107
0.37673	179.18	1.2618	13.33
0.37673	181.84	1.2614	13.555
0.37673	184.49	1.2609	13.781
0.37673	187.14	1.2605	14.008
0.37673	189.8	1.26	14.236
0.37673	192.45	1.2596	14.466
0.37673	195.1	1.2591	14.696
0.37673	197.76	1.2586	14.928
0.37673	200.41	1.2582	15.161
0.37673	203.06	1.2577	15.396
0.37673	205.71	1.2572	15.631
0.37673	208.37	1.2567	15.869
0.37673	211.02	1.2562	16.107
0.37673	213.67	1.2557	16.347
0.37673	216.33	1.2552	16.589
0.37673	218.98	1.2547	16.831
0.37673	221.63	1.2542	17.075
0.37673	224.29	1.2537	17.321
0.37673	226.94	1.2532	17.568
0.37673	229.59	1.2526	17.816
0.37673	232.24	1.2521	18.067
0.37673	234.9	1.2515	18.319
0.37673	237.55	1.251	18.572
0.37673	240.2	1.2505	18.827
0.37673	242.86	1.2499	19.084
0.37673	245.51	1.2493	19.342
0.37673	248.16	1.2488	19.603
0.37673	250.82	1.2482	19.864
0.37673	253.47	1.2476	20.128
0.37673	256.12	1.247	20.393
0.37673	258.78	1.2464	20.66
0.37673	261.43	1.2458	20.929
0.37673	264.08	1.2452	21.2
0.37673	266.73	1.2446	21.473
0.37673	269.39	1.244	21.747
0.37673	272.04	1.2434	22.024
0.37673	274.69	1.2428	22.303
0.37673	277.35	1.2421	22.584
0.37673	280	1.2415	22.867
0.38408	150	1.2669	10.892
0.38408	152.65	1.2665	11.104
0.38408	155.31	1.2661	11.318
0.38408	157.96	1.2657	11.532
0.38408	160.61	1.2654	11.747
0.38408	163.27	1.265	11.963
0.38408	165.92	1.2646	12.181
0.38408	168.57	1.2641	12.399
0.38408	171.22	1.2637	12.618
0.38408	173.88	1.2633	12.839
0.38408	176.53	1.2629	13.061
0.38408	179.18	1.2625	13.284
0.38408	181.84	1.262	13.508
0.38408	184.49	1.2616	13.733
0.38408	187.14	1.2611	13.959
0.38408	189.8	1.2607	14.186
0.38408	192.45	1.2602	14.414
0.38408	195.1	1.2598	14.644
0.38408	197.76	1.2593	14.875
0.38408	200.41	1.2588	15.107
0.38408	203.06	1.2584	15.34
0.38408	205.71	1.2579	15.575
0.38408	208.37	1.2574	15.812
0.38408	211.02	1.2569	16.049
0.38408	213.67	1.2564	16.288
0.38408	216.33	1.2559	16.528
0.38408	218.98	1.2554	16.77
0.38408	221.63	1.2549	17.013
0.38408	224.29	1.2544	17.258
0.38408	226.94	1.2538	17.504
0.38408	229.59	1.2533	17.751
0.38408	232.24	1.2528	18
0.38408	234.9	1.2522	18.251
0.38408	237.55	1.2517	18.503
0.38408	240.2	1.2511	18.757
0.38408	242.86	1.2506	19.013
0.38408	245.51	1.25	19.27
0.38408	248.16	1.2495	19.529
0.38408	250.82	1.2489	19.79
0.38408	253.47	1.2483	20.052
0.38408	256.12	1.2477	20.316
0.38408	258.78	1.2471	20.582
0.38408	261.43	1.2465	20.85
0.38408	264.08	1.2459	21.119
0.38408	266.73	1.2453	21.391
0.38408	269.39	1.2447	21.664
0.38408	272.04	1.2441	21.939
0.38408	274.69	1.2435	22.217
0.38408	277.35	1.2429	22.496
0.38408	280	1.2422	22.778
0.39143	150	1.2675	10.854
0.39143	152.65	1.2672	11.066
0.39143	155.31	1.2668	11.279
0.39143	157.96	1.2664	11.492
0.39143	160.61	1.266	11.707
0.39143	163.27	1.2656	11.922
0.39143	165.92	1.2652	12.138
0.39143	168.57	1.2648	12.356
0.39143	171.22	1.2644	12.574
0.39143	173.88	1.264	12.794
0.39143	176.53	1.2635	13.015
0.39143	179.18	1.2631	13.237
0.39143	181.84	1.2627	13.46
0.39143	184.49	1.2622	13.684
0.39143	187.14	1.2618	13.91
0.39143	189.8	1.2613	14.136
0.39143	192.45	1.2609	14.363
0.39143	195.1	1.2604	14.592
0.39143	197.76	1.26	14.822
0.39143	200.41	1.2595	15.053
0.39143	203.06	1.259	15.286
0.39143	205.71	1.2585	15.52
0.39143	208.37	1.2581	15.755
0.39143	211.02	1.2576	15.992
0.39143	213.67	1.2571	16.23
0.39143	216.33	1.2566	16.469
0.39143	218.98	1.2561	16.709
0.39143	221.63	1.2556	16.951
0.39143	224.29	1.255	17.195
0.39143	226.94	1.2545	17.44
0.39143	229.59	1.254	17.686
0.39143	232.24	1.2535	17.934
0.39143	234.9	1.2529	18.184
0.39143	237.55	1.2524	18.435
0.39143	240.2	1.2518	18.688
0.39143	242.86	1.2513	18.943
0.39143	245.51	1.2507	19.199
0.39143	248.16	1.2502	19.456
0.39143	250.82	1.2496	19.716
0.39143	253.47	1.249	19.977
0.39143	256.12	1.2484	20.24
0.39143	258.78	1.2478	20.504
0.39143	261.43	1.2472	20.771
0.39143	264.08	1.2466	21.039
0.39143	266.73	1.246	21.309
0.39143	269.39	1.2454	21.581
0.39143	272.04	1.2448	21.855
0.39143	274.69	1.2442	22.131
0.39143	277.35	1.2436	22.409
0.39143	280	1.2429	22.69
0.39878	150	1.2682	10.817
0.39878	152.65	1.2678	11.028
0.39878	155.31	1.2674	11.24
0.39878	157.96	1.267	11.453
0.39878	160.61	1.2666	11.666
0.39878	163.27	1.2662	11.881
0.39878	165.92	1.2658	12.096
0.39878	168.57	1.2654	12.313
0.39878	171.22	1.265	12.531
0.39878	173.88	1.2646	12.75
0.39878	176.53	1.2642	12.97
0.39878	179.18	1.2638	13.191
0.39878	181.84	1.2633	13.413
0.39878	184.49	1.2629	13.636
0.39878	187.14	1.2624	13.861
0.39878	189.8	1.262	14.086
0.39878	192.45	1.2615	14.313
0.39878	195.1	1.2611	14.541
0.39878	197.76	1.2606	14.77
0.39878	200.41	1.2602	15
0.39878	203.06	1.2597	15.231
0.39878	205.71	1.2592	15.464
0.39878	208.37	1.2587	15.699
0.39878	211.02	1.2582	15.934
0.39878	213.67	1.2577	16.171
0.39878	216.33	1.2572	16.41
0.39878	218.98	1.2567	16.649
0.39878	221.63	1.2562	16.89
0.39878	224.29	1.2557	17.133
0.39878	226.94	1.2552	17.376
0.39878	229.59	1.2547	17.622
0.39878	232.24	1.2541	17.869
0.39878	234.9	1.2536	18.117
0.39878	237.55	1.2531	18.367
0.39878	240.2	1.2525	18.619
0.39878	242.86	1.252	18.873
0.39878	245.51	1.2514	19.128
0.39878	248.16	1.2508	19.384
0.39878	250.82	1.2503	19.642
0.39878	253.47	1.2497	19.902
0.39878	256.12	1.2491	20.164
0.39878	258.78	1.2485	20.427
0.39878	261.43	1.2479	20.692
0.39878	264.08	1.2474	20.959
0.39878	266.73	1.2467	21.228
0.39878	269.39	1.2461	21.499
0.39878	272.04	1.2455	21.772
0.39878	274.69	1.2449	22.046
0.39878	277.35	1.2443	22.323
0.39878	280	1.2437	22.602
0.40612	150	1.2688	10.78
0.40612	152.65	1.2684	10.99
0.40612	155.31	1.2681	11.202
0.40612	157.96	1.2677	11.413
0.40612	160.61	1.2673	11.626
0.40612	163.27	1.2669	11.84
0.40612	165.92	1.2665	12.055
0.40612	168.57	1.2661	12.271
0.40612	171.22	1.2657	12.488
0.40612	173.88	1.2653	12.706
0.40612	176.53	1.2648	12.925
0.40612	179.18	1.2644	13.145
0.40612	181.84	1.264	13.366
0.40612	184.49	1.2635	13.589
0.40612	187.14	1.2631	13.812
0.40612	189.8	1.2627	14.037
0.40612	192.45	1.2622	14.263
0.40612	195.1	1.2617	14.489
0.40612	197.76	1.2613	14.718
0.40612	200.41	1.2608	14.947
0.40612	203.06	1.2603	15.178
0.40612	205.71	1.2599	15.41
0.40612	208.37	1.2594	15.643
0.40612	211.02	1.2589	15.878
0.40612	213.67	1.2584	16.114
0.40612	216.33	1.2579	16.351
0.40612	218.98	1.2574	16.589
0.40612	221.63	1.2569	16.829
0.40612	224.29	1.2564	17.071
0.40612	226.94	1.2559	17.314
0.40612	229.59	1.2553	17.558
0.40612	232.24	1.2548	17.804
0.40612	234.9	1.2543	18.051
0.40612	237.55	1.2537	18.3
0.40612	240.2	1.2532	18.551
0.40612	242.86	1.2526	18.803
0.40612	245.51	1.2521	19.057
0.40612	248.16	1.2515	19.313
0.40612	250.82	1.251	19.57
0.40612	253.47	1.2504	19.828
0.40612	256.12	1.2498	20.089
0.40612	258.78	1.2492	20.351
0.40612	261.43	1.2486	20.615
0.40612	264.08	1.2481	20.88
0.40612	266.73	1.2475	21.148
0.40612	269.39	1.2468	21.417
0.40612	272.04	1.2462	21.689
0.40612	274.69	1.2456	21.962
0.40612	277.35	1.245	22.238
0.40612	280	1.2444	22.515
0.41347	150	1.2695	10.743
0.41347	152.65	1.2691	10.953
0.41347	155.31	1.2687	11.163
0.41347	157.96	1.2683	11.374
0.41347	160.61	1.2679	11.586
0.41347	163.27	1.2675	11.799
0.41347	165.92	1.2671	12.013
0.41347	168.57	1.2667	12.228
0.41347	171.22	1.2663	12.445
0.41347	173.88	1.2659	12.662
0.41347	176.53	1.2655	12.88
0.41347	179.18	1.2651	13.1
0.41347	181.84	1.2646	13.32
0.41347	184.49	1.2642	13.542
0.41347	187.14	1.2638	13.764
0.41347	189.8	1.2633	13.988
0.41347	192.45	1.2629	14.213
0.41347	195.1	1.2624	14.439
0.41347	197.76	1.2619	14.666
0.41347	200.41	1.2615	14.894
0.41347	203.06	1.261	15.124
0.41347	205.71	1.2605	15.355
0.41347	208.37	1.2601	15.588
0.41347	211.02	1.2596	15.821
0.41347	213.67	1.2591	16.056
0.41347	216.33	1.2586	16.293
0.41347	218.98	1.2581	16.53
0.41347	221.63	1.2576	16.769
0.41347	224.29	1.2571	17.01
0.41347	226.94	1.2565	17.251
0.41347	229.59	1.256	17.495
0.41347	232.24	1.2555	17.739
0.41347	234.9	1.255	17.986
0.41347	237.55	1.2544	18.234
0.41347	240.2	1.2539	18.483
0.41347	242.86	1.2533	18.735
0.41347	245.51	1.2528	18.987
0.41347	248.16	1.2522	19.242
0.41347	250.82	1.2517	19.497
0.41347	253.47	1.2511	19.755
0.41347	256.12	1.2505	20.014
0.41347	258.78	1.2499	20.275
0.41347	261.43	1.2493	20.538
0.41347	264.08	1.2488	20.802
0.41347	266.73	1.2482	21.069
0.41347	269.39	1.2475	21.337
0.41347	272.04	1.2469	21.607
0.41347	274.69	1.2463	21.879
0.41347	277.35	1.2457	22.153
0.41347	280	1.2451	22.429
0.42082	150	1.2701	10.707
0.42082	152.65	1.2697	10.916
0.42082	155.31	1.2693	11.125
0.42082	157.96	1.269	11.336
0.42082	160.61	1.2686	11.547
0.42082	163.27	1.2682	11.759
0.42082	165.92	1.2678	11.972
0.42082	168.57	1.2674	12.186
0.42082	171.22	1.267	12.402
0.42082	173.88	1.2665	12.618
0.42082	176.53	1.2661	12.836
0.42082	179.18	1.2657	13.055
0.42082	181.84	1.2653	13.274
0.42082	184.49	1.2648	13.495
0.42082	187.14	1.2644	13.717
0.42082	189.8	1.264	13.939
0.42082	192.45	1.2635	14.163
0.42082	195.1	1.2631	14.388
0.42082	197.76	1.2626	14.615
0.42082	200.41	1.2621	14.842
0.42082	203.06	1.2617	15.071
0.42082	205.71	1.2612	15.301
0.42082	208.37	1.2607	15.533
0.42082	211.02	1.2602	15.765
0.42082	213.67	1.2597	16
0.42082	216.33	1.2592	16.235
0.42082	218.98	1.2587	16.471
0.42082	221.63	1.2582	16.709
0.42082	224.29	1.2577	16.949
0.42082	226.94	1.2572	17.189
0.42082	229.59	1.2567	17.432
0.42082	232.24	1.2562	17.676
0.42082	234.9	1.2556	17.921
0.42082	237.55	1.2551	18.168
0.42082	240.2	1.2546	18.416
0.42082	242.86	1.254	18.666
0.42082	245.51	1.2535	18.918
0.42082	248.16	1.2529	19.171
0.42082	250.82	1.2523	19.426
0.42082	253.47	1.2518	19.682
0.42082	256.12	1.2512	19.94
0.42082	258.78	1.2506	20.2
0.42082	261.43	1.25	20.461
0.42082	264.08	1.2494	20.725
0.42082	266.73	1.2489	20.99
0.42082	269.39	1.2483	21.257
0.42082	272.04	1.2476	21.525
0.42082	274.69	1.247	21.796
0.42082	277.35	1.2464	22.069
0.42082	280	1.2458	22.344
0.42816	150	1.2707	10.671
0.42816	152.65	1.2704	10.879
0.42816	155.31	1.27	11.088
0.42816	157.96	1.2696	11.297
0.42816	160.61	1.2692	11.508
0.42816	163.27	1.2688	11.719
0.42816	165.92	1.2684	11.931
0.42816	168.57	1.268	12.145
0.42816	171.22	1.2676	12.359
0.42816	173.88	1.2672	12.575
0.42816	176.53	1.2668	12.792
0.42816	179.18	1.2663	13.01
0.42816	181.84	1.2659	13.229
0.42816	184.49	1.2655	13.448
0.42816	187.14	1.2651	13.669
0.42816	189.8	1.2646	13.891
0.42816	192.45	1.2642	14.114
0.42816	195.1	1.2637	14.338
0.42816	197.76	1.2633	14.564
0.42816	200.41	1.2628	14.79
0.42816	203.06	1.2623	15.018
0.42816	205.71	1.2619	15.248
0.42816	208.37	1.2614	15.478
0.42816	211.02	1.2609	15.71
0.42816	213.67	1.2604	15.943
0.42816	216.33	1.2599	16.177
0.42816	218.98	1.2594	16.413
0.42816	221.63	1.2589	16.65
0.42816	224.29	1.2584	16.888
0.42816	226.94	1.2579	17.128
0.42816	229.59	1.2574	17.369
0.42816	232.24	1.2568	17.612
0.42816	234.9	1.2563	17.856
0.42816	237.55	1.2558	18.102
0.42816	240.2	1.2552	18.35
0.42816	242.86	1.2547	18.599
0.42816	245.51	1.2541	18.849
0.42816	248.16	1.2536	19.101
0.42816	250.82	1.253	19.355
0.42816	253.47	1.2525	19.61
0.42816	256.12	1.2519	19.867
0.42816	258.78	1.2513	20.125
0.42816	261.43	1.2507	20.386
0.42816	264.08	1.2501	20.648
0.42816	266.73	1.2495	20.912
0.42816	269.39	1.2489	21.177
0.42816	272.04	1.2483	21.445
0.42816	274.69	1.2477	21.714
0.42816	277.35	1.2471	21.986
0.42816	280	1.2465	22.259
0.43551	150	1.2714	10.635
0.43551	152.65	1.271	10.842
0.43551	155.31	1.2706	11.05
0.43551	157.96	1.2702	11.259
0.43551	160.61	1.2698	11.469
0.43551	163.27	1.2694	11.679
0.43551	165.92	1.269	11.891
0.43551	168.57	1.2686	12.104
0.43551	171.22	1.2682	12.317
0.43551	173.88	1.2678	12.532
0.43551	176.53	1.2674	12.748
0.43551	179.18	1.267	12.965
0.43551	181.84	1.2666	13.183
0.43551	184.49	1.2661	13.402
0.43551	187.14	1.2657	13.622
0.43551	189.8	1.2653	13.843
0.43551	192.45	1.2648	14.065
0.43551	195.1	1.2644	14.289
0.43551	197.76	1.2639	14.513
0.43551	200.41	1.2634	14.739
0.43551	203.06	1.263	14.966
0.43551	205.71	1.2625	15.195
0.43551	208.37	1.262	15.424
0.43551	211.02	1.2616	15.655
0.43551	213.67	1.2611	15.887
0.43551	216.33	1.2606	16.121
0.43551	218.98	1.2601	16.355
0.43551	221.63	1.2596	16.591
0.43551	224.29	1.2591	16.828
0.43551	226.94	1.2586	17.067
0.43551	229.59	1.258	17.307
0.43551	232.24	1.2575	17.549
0.43551	234.9	1.257	17.792
0.43551	237.55	1.2565	18.037
0.43551	240.2	1.2559	18.284
0.43551	242.86	1.2554	18.531
0.43551	245.51	1.2548	18.781
0.43551	248.16	1.2543	19.032
0.43551	250.82	1.2537	19.284
0.43551	253.47	1.2531	19.538
0.43551	256.12	1.2526	19.794
0.43551	258.78	1.252	20.051
0.43551	261.43	1.2514	20.31
0.43551	264.08	1.2508	20.571
0.43551	266.73	1.2502	20.834
0.43551	269.39	1.2496	21.098
0.43551	272.04	1.249	21.365
0.43551	274.69	1.2484	21.633
0.43551	277.35	1.2478	21.903
0.43551	280	1.2472	22.176
0.44286	150	1.272	10.599
0.44286	152.65	1.2716	10.806
0.44286	155.31	1.2712	11.013
0.44286	157.96	1.2709	11.221
0.44286	160.61	1.2705	11.43
0.44286	163.27	1.2701	11.64
0.44286	165.92	1.2697	11.851
0.44286	168.57	1.2693	12.063
0.44286	171.22	1.2689	12.276
0.44286	173.88	1.2685	12.49
0.44286	176.53	1.2681	12.705
0.44286	179.18	1.2676	12.921
0.44286	181.84	1.2672	13.138
0.44286	184.49	1.2668	13.356
0.44286	187.14	1.2663	13.576
0.44286	189.8	1.2659	13.796
0.44286	192.45	1.2655	14.017
0.44286	195.1	1.265	14.24
0.44286	197.76	1.2646	14.463
0.44286	200.41	1.2641	14.688
0.44286	203.06	1.2636	14.914
0.44286	205.71	1.2632	15.142
0.44286	208.37	1.2627	15.37
0.44286	211.02	1.2622	15.6
0.44286	213.67	1.2617	15.832
0.44286	216.33	1.2612	16.064
0.44286	218.98	1.2607	16.298
0.44286	221.63	1.2602	16.533
0.44286	224.29	1.2597	16.769
0.44286	226.94	1.2592	17.007
0.44286	229.59	1.2587	17.246
0.44286	232.24	1.2582	17.487
0.44286	234.9	1.2577	17.729
0.44286	237.55	1.2571	17.973
0.44286	240.2	1.2566	18.218
0.44286	242.86	1.2561	18.465
0.44286	245.51	1.2555	18.713
0.44286	248.16	1.255	18.963
0.44286	250.82	1.2544	19.214
0.44286	253.47	1.2538	19.467
0.44286	256.12	1.2533	19.722
0.44286	258.78	1.2527	19.978
0.44286	261.43	1.2521	20.236
0.44286	264.08	1.2515	20.496
0.44286	266.73	1.2509	20.757
0.44286	269.39	1.2503	21.02
0.44286	272.04	1.2497	21.285
0.44286	274.69	1.2491	21.553
0.44286	277.35	1.2485	21.822
0.44286	280	1.2479	22.092
0.4502	150	1.2726	10.564
0.4502	152.65	1.2722	10.77
0.4502	155.31	1.2719	10.976
0.4502	157.96	1.2715	11.184
0.4502	160.61	1.2711	11.392
0.4502	163.27	1.2707	11.601
0.4502	165.92	1.2703	11.811
0.4502	168.57	1.2699	12.022
0.4502	171.22	1.2695	12.234
0.4502	173.88	1.2691	12.447
0.4502	176.53	1.2687	12.662
0.4502	179.18	1.2683	12.877
0.4502	181.84	1.2679	13.094
0.4502	184.49	1.2674	13.311
0.4502	187.14	1.267	13.529
0.4502	189.8	1.2666	13.749
0.4502	192.45	1.2661	13.969
0.4502	195.1	1.2657	14.191
0.4502	197.76	1.2652	14.413
0.4502	200.41	1.2647	14.638
0.4502	203.06	1.2643	14.863
0.4502	205.71	1.2638	15.089
0.4502	208.37	1.2633	15.317
0.4502	211.02	1.2629	15.546
0.4502	213.67	1.2624	15.776
0.4502	216.33	1.2619	16.008
0.4502	218.98	1.2614	16.241
0.4502	221.63	1.2609	16.475
0.4502	224.29	1.2604	16.71
0.4502	226.94	1.2599	16.947
0.4502	229.59	1.2594	17.185
0.4502	232.24	1.2589	17.425
0.4502	234.9	1.2583	17.666
0.4502	237.55	1.2578	17.909
0.4502	240.2	1.2573	18.153
0.4502	242.86	1.2567	18.399
0.4502	245.51	1.2562	18.646
0.4502	248.16	1.2556	18.895
0.4502	250.82	1.2551	19.145
0.4502	253.47	1.2545	19.397
0.4502	256.12	1.2539	19.65
0.4502	258.78	1.2534	19.905
0.4502	261.43	1.2528	20.162
0.4502	264.08	1.2522	20.42
0.4502	266.73	1.2516	20.681
0.4502	269.39	1.251	20.943
0.4502	272.04	1.2504	21.207
0.4502	274.69	1.2498	21.473
0.4502	277.35	1.2492	21.74
0.4502	280	1.2486	22.01
0.45755	150	1.2732	10.529
0.45755	152.65	1.2729	10.734
0.45755	155.31	1.2725	10.94
0.45755	157.96	1.2721	11.146
0.45755	160.61	1.2717	11.354
0.45755	163.27	1.2713	11.562
0.45755	165.92	1.271	11.771
0.45755	168.57	1.2706	11.982
0.45755	171.22	1.2702	12.193
0.45755	173.88	1.2697	12.406
0.45755	176.53	1.2693	12.619
0.45755	179.18	1.2689	12.834
0.45755	181.84	1.2685	13.049
0.45755	184.49	1.2681	13.266
0.45755	187.14	1.2676	13.483
0.45755	189.8	1.2672	13.702
0.45755	192.45	1.2668	13.921
0.45755	195.1	1.2663	14.142
0.45755	197.76	1.2659	14.364
0.45755	200.41	1.2654	14.587
0.45755	203.06	1.2649	14.812
0.45755	205.71	1.2645	15.037
0.45755	208.37	1.264	15.264
0.45755	211.02	1.2635	15.492
0.45755	213.67	1.263	15.722
0.45755	216.33	1.2626	15.952
0.45755	218.98	1.2621	16.184
0.45755	221.63	1.2616	16.417
0.45755	224.29	1.2611	16.652
0.45755	226.94	1.2606	16.887
0.45755	229.59	1.26	17.125
0.45755	232.24	1.2595	17.363
0.45755	234.9	1.259	17.604
0.45755	237.55	1.2585	17.845
0.45755	240.2	1.2579	18.088
0.45755	242.86	1.2574	18.333
0.45755	245.51	1.2569	18.579
0.45755	248.16	1.2563	18.827
0.45755	250.82	1.2558	19.076
0.45755	253.47	1.2552	19.327
0.45755	256.12	1.2546	19.579
0.45755	258.78	1.2541	19.833
0.45755	261.43	1.2535	20.089
0.45755	264.08	1.2529	20.346
0.45755	266.73	1.2523	20.605
0.45755	269.39	1.2517	20.866
0.45755	272.04	1.2511	21.129
0.45755	274.69	1.2505	21.393
0.45755	277.35	1.2499	21.66
0.45755	280	1.2493	21.928
0.4649	150	1.2739	10.494
0.4649	152.65	1.2735	10.698
0.4649	155.31	1.2731	10.903
0.4649	157.96	1.2727	11.109
0.4649	160.61	1.2724	11.316
0.4649	163.27	1.272	11.523
0.4649	165.92	1.2716	11.732
0.4649	168.57	1.2712	11.941
0.4649	171.22	1.2708	12.152
0.4649	173.88	1.2704	12.364
0.4649	176.53	1.27	12.577
0.4649	179.18	1.2696	12.79
0.4649	181.84	1.2691	13.005
0.4649	184.49	1.2687	13.221
0.4649	187.14	1.2683	13.438
0.4649	189.8	1.2678	13.655
0.4649	192.45	1.2674	13.874
0.4649	195.1	1.267	14.094
0.4649	197.76	1.2665	14.315
0.4649	200.41	1.266	14.537
0.4649	203.06	1.2656	14.761
0.4649	205.71	1.2651	14.986
0.4649	208.37	1.2646	15.212
0.4649	211.02	1.2642	15.439
0.4649	213.67	1.2637	15.667
0.4649	216.33	1.2632	15.897
0.4649	218.98	1.2627	16.128
0.4649	221.63	1.2622	16.36
0.4649	224.29	1.2617	16.593
0.4649	226.94	1.2612	16.828
0.4649	229.59	1.2607	17.065
0.4649	232.24	1.2602	17.302
0.4649	234.9	1.2597	17.542
0.4649	237.55	1.2591	17.782
0.4649	240.2	1.2586	18.024
0.4649	242.86	1.2581	18.268
0.4649	245.51	1.2575	18.513
0.4649	248.16	1.257	18.76
0.4649	250.82	1.2564	19.008
0.4649	253.47	1.2559	19.257
0.4649	256.12	1.2553	19.508
0.4649	258.78	1.2547	19.761
0.4649	261.43	1.2542	20.016
0.4649	264.08	1.2536	20.272
0.4649	266.73	1.253	20.53
0.4649	269.39	1.2524	20.79
0.4649	272.04	1.2518	21.051
0.4649	274.69	1.2512	21.315
0.4649	277.35	1.2506	21.58
0.4649	280	1.25	21.847
0.47224	150	1.2745	10.459
0.47224	152.65	1.2741	10.663
0.47224	155.31	1.2738	10.867
0.47224	157.96	1.2734	11.072
0.47224	160.61	1.273	11.278
0.47224	163.27	1.2726	11.485
0.47224	165.92	1.2722	11.693
0.47224	168.57	1.2718	11.902
0.47224	171.22	1.2714	12.112
0.47224	173.88	1.271	12.323
0.47224	176.53	1.2706	12.535
0.47224	179.18	1.2702	12.748
0.47224	181.84	1.2698	12.961
0.47224	184.49	1.2693	13.176
0.47224	187.14	1.2689	13.392
0.47224	189.8	1.2685	13.609
0.47224	192.45	1.268	13.827
0.47224	195.1	1.2676	14.046
0.47224	197.76	1.2671	14.266
0.47224	200.41	1.2667	14.488
0.47224	203.06	1.2662	14.711
0.47224	205.71	1.2658	14.934
0.47224	208.37	1.2653	15.16
0.47224	211.02	1.2648	15.386
0.47224	213.67	1.2643	15.613
0.47224	216.33	1.2639	15.842
0.47224	218.98	1.2634	16.072
0.47224	221.63	1.2629	16.303
0.47224	224.29	1.2624	16.536
0.47224	226.94	1.2619	16.77
0.47224	229.59	1.2614	17.005
0.47224	232.24	1.2608	17.242
0.47224	234.9	1.2603	17.48
0.47224	237.55	1.2598	17.72
0.47224	240.2	1.2593	17.961
0.47224	242.86	1.2587	18.203
0.47224	245.51	1.2582	18.447
0.47224	248.16	1.2577	18.693
0.47224	250.82	1.2571	18.94
0.47224	253.47	1.2565	19.188
0.47224	256.12	1.256	19.439
0.47224	258.78	1.2554	19.69
0.47224	261.43	1.2548	19.944
0.47224	264.08	1.2543	20.199
0.47224	266.73	1.2537	20.455
0.47224	269.39	1.2531	20.714
0.47224	272.04	1.2525	20.974
0.47224	274.69	1.2519	21.236
0.47224	277.35	1.2513	21.5
0.47224	280	1.2507	21.766
0.47959	150	1.2751	10.425
0.47959	152.65	1.2748	10.628
0.47959	155.31	1.2744	10.831
0.47959	157.96	1.274	11.036
0.47959	160.61	1.2736	11.241
0.47959	163.27	1.2732	11.447
0.47959	165.92	1.2728	11.654
0.47959	168.57	1.2725	11.862
0.47959	171.22	1.2721	12.071
0.47959	173.88	1.2716	12.281
0.47959	176.53	1.2712	12.493
0.47959	179.18	1.2708	12.705
0.47959	181.84	1.2704	12.918
0.47959	184.49	1.27	13.132
0.47959	187.14	1.2696	13.347
0.47959	189.8	1.2691	13.563
0.47959	192.45	1.2687	13.78
0.47959	195.1	1.2682	13.999
0.47959	197.76	1.2678	14.218
0.47959	200.41	1.2673	14.439
0.47959	203.06	1.2669	14.661
0.47959	205.71	1.2664	14.884
0.47959	208.37	1.2659	15.108
0.47959	211.02	1.2655	15.333
0.47959	213.67	1.265	15.56
0.47959	216.33	1.2645	15.788
0.47959	218.98	1.264	16.017
0.47959	221.63	1.2635	16.247
0.47959	224.29	1.263	16.479
0.47959	226.94	1.2625	16.712
0.47959	229.59	1.262	16.946
0.47959	232.24	1.2615	17.182
0.47959	234.9	1.261	17.419
0.47959	237.55	1.2605	17.658
0.47959	240.2	1.2599	17.898
0.47959	242.86	1.2594	18.139
0.47959	245.51	1.2589	18.382
0.47959	248.16	1.2583	18.627
0.47959	250.82	1.2578	18.873
0.47959	253.47	1.2572	19.12
0.47959	256.12	1.2567	19.369
0.47959	258.78	1.2561	19.62
0.47959	261.43	1.2555	19.872
0.47959	264.08	1.2549	20.126
0.47959	266.73	1.2544	20.381
0.47959	269.39	1.2538	20.639
0.47959	272.04	1.2532	20.898
0.47959	274.69	1.2526	21.159
0.47959	277.35	1.252	21.422
0.47959	280	1.2514	21.686
0.48694	150	1.2757	10.391
0.48694	152.65	1.2754	10.593
0.48694	155.31	1.275	10.796
0.48694	157.96	1.2746	10.999
0.48694	160.61	1.2742	11.204
0.48694	163.27	1.2739	11.409
0.48694	165.92	1.2735	11.615
0.48694	168.57	1.2731	11.823
0.48694	171.22	1.2727	12.031
0.48694	173.88	1.2723	12.241
0.48694	176.53	1.2719	12.451
0.48694	179.18	1.2715	12.663
0.48694	181.84	1.271	12.875
0.48694	184.49	1.2706	13.088
0.48694	187.14	1.2702	13.303
0.48694	189.8	1.2698	13.518
0.48694	192.45	1.2693	13.734
0.48694	195.1	1.2689	13.952
0.48694	197.76	1.2684	14.17
0.48694	200.41	1.268	14.39
0.48694	203.06	1.2675	14.611
0.48694	205.71	1.2671	14.833
0.48694	208.37	1.2666	15.056
0.48694	211.02	1.2661	15.281
0.48694	213.67	1.2656	15.507
0.48694	216.33	1.2652	15.734
0.48694	218.98	1.2647	15.962
0.48694	221.63	1.2642	16.191
0.48694	224.29	1.2637	16.422
0.48694	226.94	1.2632	16.654
0.48694	229.59	1.2627	16.887
0.48694	232.24	1.2622	17.122
0.48694	234.9	1.2617	17.358
0.48694	237.55	1.2611	17.596
0.48694	240.2	1.2606	17.835
0.48694	242.86	1.2601	18.076
0.48694	245.51	1.2595	18.318
0.48694	248.16	1.259	18.561
0.48694	250.82	1.2584	18.806
0.48694	253.47	1.2579	19.052
0.48694	256.12	1.2573	19.3
0.48694	258.78	1.2568	19.55
0.48694	261.43	1.2562	19.801
0.48694	264.08	1.2556	20.054
0.48694	266.73	1.2551	20.308
0.48694	269.39	1.2545	20.564
0.48694	272.04	1.2539	20.822
0.48694	274.69	1.2533	21.082
0.48694	277.35	1.2527	21.344
0.48694	280	1.2521	21.607
0.49429	150	1.2764	10.357
0.49429	152.65	1.276	10.558
0.49429	155.31	1.2756	10.76
0.49429	157.96	1.2753	10.963
0.49429	160.61	1.2749	11.167
0.49429	163.27	1.2745	11.372
0.49429	165.92	1.2741	11.577
0.49429	168.57	1.2737	11.784
0.49429	171.22	1.2733	11.992
0.49429	173.88	1.2729	12.2
0.49429	176.53	1.2725	12.41
0.49429	179.18	1.2721	12.621
0.49429	181.84	1.2717	12.832
0.49429	184.49	1.2713	13.045
0.49429	187.14	1.2708	13.258
0.49429	189.8	1.2704	13.473
0.49429	192.45	1.27	13.688
0.49429	195.1	1.2695	13.905
0.49429	197.76	1.2691	14.123
0.49429	200.41	1.2686	14.342
0.49429	203.06	1.2682	14.562
0.49429	205.71	1.2677	14.783
0.49429	208.37	1.2672	15.005
0.49429	211.02	1.2668	15.229
0.49429	213.67	1.2663	15.454
0.49429	216.33	1.2658	15.68
0.49429	218.98	1.2653	15.907
0.49429	221.63	1.2648	16.136
0.49429	224.29	1.2643	16.365
0.49429	226.94	1.2638	16.597
0.49429	229.59	1.2633	16.829
0.49429	232.24	1.2628	17.063
0.49429	234.9	1.2623	17.298
0.49429	237.55	1.2618	17.535
0.49429	240.2	1.2613	17.773
0.49429	242.86	1.2607	18.013
0.49429	245.51	1.2602	18.253
0.49429	248.16	1.2597	18.496
0.49429	250.82	1.2591	18.74
0.49429	253.47	1.2586	18.985
0.49429	256.12	1.258	19.232
0.49429	258.78	1.2574	19.48
0.49429	261.43	1.2569	19.73
0.49429	264.08	1.2563	19.982
0.49429	266.73	1.2557	20.235
0.49429	269.39	1.2551	20.49
0.49429	272.04	1.2546	20.747
0.49429	274.69	1.254	21.006
0.49429	277.35	1.2534	21.266
0.49429	280	1.2528	21.528
0.50163	150	1.277	10.323
0.50163	152.65	1.2766	10.524
0.50163	155.31	1.2762	10.725
0.50163	157.96	1.2759	10.927
0.50163	160.61	1.2755	11.13
0.50163	163.27	1.2751	11.334
0.50163	165.92	1.2747	11.539
0.50163	168.57	1.2743	11.745
0.50163	171.22	1.2739	11.952
0.50163	173.88	1.2735	12.16
0.50163	176.53	1.2731	12.369
0.50163	179.18	1.2727	12.579
0.50163	181.84	1.2723	12.79
0.50163	184.49	1.2719	13.001
0.50163	187.14	1.2715	13.214
0.50163	189.8	1.271	13.428
0.50163	192.45	1.2706	13.643
0.50163	195.1	1.2702	13.858
0.50163	197.76	1.2697	14.075
0.50163	200.41	1.2693	14.293
0.50163	203.06	1.2688	14.513
0.50163	205.71	1.2683	14.733
0.50163	208.37	1.2679	14.955
0.50163	211.02	1.2674	15.178
0.50163	213.67	1.2669	15.402
0.50163	216.33	1.2665	15.627
0.50163	218.98	1.266	15.853
0.50163	221.63	1.2655	16.081
0.50163	224.29	1.265	16.309
0.50163	226.94	1.2645	16.54
0.50163	229.59	1.264	16.771
0.50163	232.24	1.2635	17.004
0.50163	234.9	1.263	17.238
0.50163	237.55	1.2625	17.474
0.50163	240.2	1.2619	17.711
0.50163	242.86	1.2614	17.95
0.50163	245.51	1.2609	18.19
0.50163	248.16	1.2603	18.431
0.50163	250.82	1.2598	18.674
0.50163	253.47	1.2592	18.918
0.50163	256.12	1.2587	19.164
0.50163	258.78	1.2581	19.411
0.50163	261.43	1.2576	19.66
0.50163	264.08	1.257	19.911
0.50163	266.73	1.2564	20.163
0.50163	269.39	1.2558	20.417
0.50163	272.04	1.2552	20.673
0.50163	274.69	1.2547	20.93
0.50163	277.35	1.2541	21.19
0.50163	280	1.2535	21.45
0.50898	150	1.2776	10.289
0.50898	152.65	1.2772	10.489
0.50898	155.31	1.2769	10.69
0.50898	157.96	1.2765	10.892
0.50898	160.61	1.2761	11.094
0.50898	163.27	1.2757	11.297
0.50898	165.92	1.2753	11.502
0.50898	168.57	1.275	11.707
0.50898	171.22	1.2746	11.913
0.50898	173.88	1.2742	12.12
0.50898	176.53	1.2738	12.328
0.50898	179.18	1.2733	12.537
0.50898	181.84	1.2729	12.748
0.50898	184.49	1.2725	12.958
0.50898	187.14	1.2721	13.17
0.50898	189.8	1.2717	13.383
0.50898	192.45	1.2712	13.597
0.50898	195.1	1.2708	13.812
0.50898	197.76	1.2703	14.028
0.50898	200.41	1.2699	14.246
0.50898	203.06	1.2694	14.464
0.50898	205.71	1.269	14.684
0.50898	208.37	1.2685	14.905
0.50898	211.02	1.2681	15.127
0.50898	213.67	1.2676	15.35
0.50898	216.33	1.2671	15.574
0.50898	218.98	1.2666	15.799
0.50898	221.63	1.2661	16.026
0.50898	224.29	1.2656	16.254
0.50898	226.94	1.2651	16.483
0.50898	229.59	1.2646	16.714
0.50898	232.24	1.2641	16.946
0.50898	234.9	1.2636	17.179
0.50898	237.55	1.2631	17.414
0.50898	240.2	1.2626	17.65
0.50898	242.86	1.2621	17.888
0.50898	245.51	1.2615	18.127
0.50898	248.16	1.261	18.367
0.50898	250.82	1.2604	18.609
0.50898	253.47	1.2599	18.852
0.50898	256.12	1.2593	19.097
0.50898	258.78	1.2588	19.343
0.50898	261.43	1.2582	19.591
0.50898	264.08	1.2577	19.84
0.50898	266.73	1.2571	20.092
0.50898	269.39	1.2565	20.344
0.50898	272.04	1.2559	20.599
0.50898	274.69	1.2553	20.855
0.50898	277.35	1.2547	21.113
0.50898	280	1.2541	21.373
0.51633	150	1.2782	10.256
0.51633	152.65	1.2778	10.455
0.51633	155.31	1.2775	10.656
0.51633	157.96	1.2771	10.856
0.51633	160.61	1.2767	11.058
0.51633	163.27	1.2764	11.261
0.51633	165.92	1.276	11.464
0.51633	168.57	1.2756	11.668
0.51633	171.22	1.2752	11.874
0.51633	173.88	1.2748	12.08
0.51633	176.53	1.2744	12.288
0.51633	179.18	1.274	12.496
0.51633	181.84	1.2736	12.706
0.51633	184.49	1.2731	12.916
0.51633	187.14	1.2727	13.127
0.51633	189.8	1.2723	13.339
0.51633	192.45	1.2719	13.552
0.51633	195.1	1.2714	13.766
0.51633	197.76	1.271	13.982
0.51633	200.41	1.2705	14.198
0.51633	203.06	1.2701	14.416
0.51633	205.71	1.2696	14.635
0.51633	208.37	1.2692	14.855
0.51633	211.02	1.2687	15.076
0.51633	213.67	1.2682	15.298
0.51633	216.33	1.2678	15.521
0.51633	218.98	1.2673	15.746
0.51633	221.63	1.2668	15.972
0.51633	224.29	1.2663	16.199
0.51633	226.94	1.2658	16.427
0.51633	229.59	1.2653	16.657
0.51633	232.24	1.2648	16.888
0.51633	234.9	1.2643	17.12
0.51633	237.55	1.2638	17.354
0.51633	240.2	1.2632	17.589
0.51633	242.86	1.2627	17.826
0.51633	245.51	1.2622	18.064
0.51633	248.16	1.2617	18.303
0.51633	250.82	1.2611	18.544
0.51633	253.47	1.2606	18.786
0.51633	256.12	1.26	19.03
0.51633	258.78	1.2595	19.275
0.51633	261.43	1.2589	19.522
0.51633	264.08	1.2583	19.77
0.51633	266.73	1.2578	20.02
0.51633	269.39	1.2572	20.272
0.51633	272.04	1.2566	20.526
0.51633	274.69	1.256	20.781
0.51633	277.35	1.2554	21.038
0.51633	280	1.2548	21.296
0.52367	150	1.2788	10.223
0.52367	152.65	1.2785	10.422
0.52367	155.31	1.2781	10.621
0.52367	157.96	1.2777	10.821
0.52367	160.61	1.2774	11.022
0.52367	163.27	1.277	11.224
0.52367	165.92	1.2766	11.427
0.52367	168.57	1.2762	11.631
0.52367	171.22	1.2758	11.835
0.52367	173.88	1.2754	12.041
0.52367	176.53	1.275	12.248
0.52367	179.18	1.2746	12.455
0.52367	181.84	1.2742	12.664
0.52367	184.49	1.2738	12.873
0.52367	187.14	1.2734	13.084
0.52367	189.8	1.2729	13.295
0.52367	192.45	1.2725	13.508
0.52367	195.1	1.2721	13.721
0.52367	197.76	1.2716	13.936
0.52367	200.41	1.2712	14.151
0.52367	203.06	1.2707	14.368
0.52367	205.71	1.2703	14.586
0.52367	208.37	1.2698	14.805
0.52367	211.02	1.2693	15.025
0.52367	213.67	1.2689	15.247
0.52367	216.33	1.2684	15.469
0.52367	218.98	1.2679	15.693
0.52367	221.63	1.2674	15.918
0.52367	224.29	1.2669	16.144
0.52367	226.94	1.2664	16.371
0.52367	229.59	1.2659	16.6
0.52367	232.24	1.2654	16.83
0.52367	234.9	1.2649	17.062
0.52367	237.55	1.2644	17.295
0.52367	240.2	1.2639	17.529
0.52367	242.86	1.2634	17.765
0.52367	245.51	1.2628	18.002
0.52367	248.16	1.2623	18.24
0.52367	250.82	1.2618	18.48
0.52367	253.47	1.2612	18.721
0.52367	256.12	1.2607	18.964
0.52367	258.78	1.2601	19.208
0.52367	261.43	1.2596	19.454
0.52367	264.08	1.259	19.701
0.52367	266.73	1.2584	19.95
0.52367	269.39	1.2579	20.2
0.52367	272.04	1.2573	20.453
0.52367	274.69	1.2567	20.707
0.52367	277.35	1.2561	20.963
0.52367	280	1.2555	21.22
0.53102	150	1.2794	10.19
0.53102	152.65	1.2791	10.388
0.53102	155.31	1.2787	10.587
0.53102	157.96	1.2783	10.786
0.53102	160.61	1.278	10.987
0.53102	163.27	1.2776	11.188
0.53102	165.92	1.2772	11.39
0.53102	168.57	1.2768	11.593
0.53102	171.22	1.2764	11.797
0.53102	173.88	1.276	12.002
0.53102	176.53	1.2756	12.208
0.53102	179.18	1.2752	12.415
0.53102	181.84	1.2748	12.623
0.53102	184.49	1.2744	12.831
0.53102	187.14	1.274	13.041
0.53102	189.8	1.2736	13.252
0.53102	192.45	1.2731	13.463
0.53102	195.1	1.2727	13.676
0.53102	197.76	1.2722	13.89
0.53102	200.41	1.2718	14.104
0.53102	203.06	1.2714	14.32
0.53102	205.71	1.2709	14.538
0.53102	208.37	1.2704	14.756
0.53102	211.02	1.27	14.975
0.53102	213.67	1.2695	15.196
0.53102	216.33	1.269	15.418
0.53102	218.98	1.2686	15.64
0.53102	221.63	1.2681	15.864
0.53102	224.29	1.2676	16.09
0.53102	226.94	1.2671	16.316
0.53102	229.59	1.2666	16.544
0.53102	232.24	1.2661	16.773
0.53102	234.9	1.2656	17.004
0.53102	237.55	1.2651	17.236
0.53102	240.2	1.2646	17.469
0.53102	242.86	1.264	17.704
0.53102	245.51	1.2635	17.94
0.53102	248.16	1.263	18.177
0.53102	250.82	1.2624	18.416
0.53102	253.47	1.2619	18.656
0.53102	256.12	1.2613	18.898
0.53102	258.78	1.2608	19.141
0.53102	261.43	1.2602	19.386
0.53102	264.08	1.2597	19.632
0.53102	266.73	1.2591	19.88
0.53102	269.39	1.2585	20.129
0.53102	272.04	1.2579	20.381
0.53102	274.69	1.2574	20.634
0.53102	277.35	1.2568	20.888
0.53102	280	1.2562	21.145
0.53837	150	1.28	10.158
0.53837	152.65	1.2797	10.355
0.53837	155.31	1.2793	10.553
0.53837	157.96	1.279	10.752
0.53837	160.61	1.2786	10.951
0.53837	163.27	1.2782	11.152
0.53837	165.92	1.2778	11.353
0.53837	168.57	1.2774	11.555
0.53837	171.22	1.2771	11.759
0.53837	173.88	1.2767	11.963
0.53837	176.53	1.2763	12.168
0.53837	179.18	1.2758	12.375
0.53837	181.84	1.2754	12.582
0.53837	184.49	1.275	12.79
0.53837	187.14	1.2746	12.998
0.53837	189.8	1.2742	13.208
0.53837	192.45	1.2738	13.419
0.53837	195.1	1.2733	13.631
0.53837	197.76	1.2729	13.844
0.53837	200.41	1.2724	14.058
0.53837	203.06	1.272	14.273
0.53837	205.71	1.2715	14.49
0.53837	208.37	1.2711	14.707
0.53837	211.02	1.2706	14.926
0.53837	213.67	1.2701	15.145
0.53837	216.33	1.2697	15.366
0.53837	218.98	1.2692	15.588
0.53837	221.63	1.2687	15.811
0.53837	224.29	1.2682	16.036
0.53837	226.94	1.2677	16.261
0.53837	229.59	1.2672	16.488
0.53837	232.24	1.2667	16.717
0.53837	234.9	1.2662	16.946
0.53837	237.55	1.2657	17.177
0.53837	240.2	1.2652	17.41
0.53837	242.86	1.2647	17.643
0.53837	245.51	1.2642	17.878
0.53837	248.16	1.2636	18.115
0.53837	250.82	1.2631	18.353
0.53837	253.47	1.2626	18.592
0.53837	256.12	1.262	18.832
0.53837	258.78	1.2615	19.075
0.53837	261.43	1.2609	19.318
0.53837	264.08	1.2603	19.564
0.53837	266.73	1.2598	19.81
0.53837	269.39	1.2592	20.059
0.53837	272.04	1.2586	20.309
0.53837	274.69	1.258	20.561
0.53837	277.35	1.2574	20.815
0.53837	280	1.2569	21.07
0.54571	150	1.2807	10.125
0.54571	152.65	1.2803	10.322
0.54571	155.31	1.2799	10.519
0.54571	157.96	1.2796	10.717
0.54571	160.61	1.2792	10.916
0.54571	163.27	1.2788	11.116
0.54571	165.92	1.2784	11.317
0.54571	168.57	1.2781	11.518
0.54571	171.22	1.2777	11.721
0.54571	173.88	1.2773	11.925
0.54571	176.53	1.2769	12.129
0.54571	179.18	1.2765	12.335
0.54571	181.84	1.2761	12.541
0.54571	184.49	1.2756	12.748
0.54571	187.14	1.2752	12.956
0.54571	189.8	1.2748	13.165
0.54571	192.45	1.2744	13.375
0.54571	195.1	1.2739	13.586
0.54571	197.76	1.2735	13.799
0.54571	200.41	1.2731	14.012
0.54571	203.06	1.2726	14.226
0.54571	205.71	1.2722	14.442
0.54571	208.37	1.2717	14.659
0.54571	211.02	1.2713	14.876
0.54571	213.67	1.2708	15.095
0.54571	216.33	1.2703	15.315
0.54571	218.98	1.2698	15.536
0.54571	221.63	1.2694	15.759
0.54571	224.29	1.2689	15.982
0.54571	226.94	1.2684	16.207
0.54571	229.59	1.2679	16.433
0.54571	232.24	1.2674	16.66
0.54571	234.9	1.2669	16.889
0.54571	237.55	1.2664	17.119
0.54571	240.2	1.2659	17.351
0.54571	242.86	1.2653	17.584
0.54571	245.51	1.2648	17.818
0.54571	248.16	1.2643	18.053
0.54571	250.82	1.2637	18.29
0.54571	253.47	1.2632	18.528
0.54571	256.12	1.2627	18.768
0.54571	258.78	1.2621	19.009
0.54571	261.43	1.2616	19.251
0.54571	264.08	1.261	19.496
0.54571	266.73	1.2604	19.741
0.54571	269.39	1.2599	19.989
0.54571	272.04	1.2593	20.238
0.54571	274.69	1.2587	20.489
0.54571	277.35	1.2581	20.741
0.54571	280	1.2575	20.995
0.55306	150	1.2813	10.093
0.55306	152.65	1.2809	10.289
0.55306	155.31	1.2806	10.486
0.55306	157.96	1.2802	10.683
0.55306	160.61	1.2798	10.881
0.55306	163.27	1.2794	11.08
0.55306	165.92	1.2791	11.28
0.55306	168.57	1.2787	11.481
0.55306	171.22	1.2783	11.683
0.55306	173.88	1.2779	11.886
0.55306	176.53	1.2775	12.09
0.55306	179.18	1.2771	12.295
0.55306	181.84	1.2767	12.5
0.55306	184.49	1.2763	12.707
0.55306	187.14	1.2759	12.914
0.55306	189.8	1.2754	13.123
0.55306	192.45	1.275	13.332
0.55306	195.1	1.2746	13.542
0.55306	197.76	1.2741	13.754
0.55306	200.41	1.2737	13.966
0.55306	203.06	1.2733	14.18
0.55306	205.71	1.2728	14.395
0.55306	208.37	1.2723	14.61
0.55306	211.02	1.2719	14.827
0.55306	213.67	1.2714	15.045
0.55306	216.33	1.271	15.265
0.55306	218.98	1.2705	15.485
0.55306	221.63	1.27	15.706
0.55306	224.29	1.2695	15.929
0.55306	226.94	1.269	16.153
0.55306	229.59	1.2685	16.378
0.55306	232.24	1.268	16.605
0.55306	234.9	1.2675	16.832
0.55306	237.55	1.267	17.062
0.55306	240.2	1.2665	17.292
0.55306	242.86	1.266	17.524
0.55306	245.51	1.2655	17.757
0.55306	248.16	1.2649	17.992
0.55306	250.82	1.2644	18.228
0.55306	253.47	1.2639	18.465
0.55306	256.12	1.2633	18.703
0.55306	258.78	1.2628	18.943
0.55306	261.43	1.2622	19.185
0.55306	264.08	1.2617	19.428
0.55306	266.73	1.2611	19.673
0.55306	269.39	1.2605	19.919
0.55306	272.04	1.26	20.167
0.55306	274.69	1.2594	20.417
0.55306	277.35	1.2588	20.669
0.55306	280	1.2582	20.921
0.56041	150	1.2819	10.061
0.56041	152.65	1.2815	10.256
0.56041	155.31	1.2812	10.453
0.56041	157.96	1.2808	10.649
0.56041	160.61	1.2804	10.847
0.56041	163.27	1.2801	11.045
0.56041	165.92	1.2797	11.245
0.56041	168.57	1.2793	11.445
0.56041	171.22	1.2789	11.646
0.56041	173.88	1.2785	11.848
0.56041	176.53	1.2781	12.051
0.56041	179.18	1.2777	12.255
0.56041	181.84	1.2773	12.46
0.56041	184.49	1.2769	12.666
0.56041	187.14	1.2765	12.873
0.56041	189.8	1.2761	13.08
0.56041	192.45	1.2756	13.289
0.56041	195.1	1.2752	13.498
0.56041	197.76	1.2748	13.709
0.56041	200.41	1.2743	13.921
0.56041	203.06	1.2739	14.134
0.56041	205.71	1.2734	14.348
0.56041	208.37	1.273	14.563
0.56041	211.02	1.2725	14.779
0.56041	213.67	1.2721	14.996
0.56041	216.33	1.2716	15.214
0.56041	218.98	1.2711	15.434
0.56041	221.63	1.2706	15.654
0.56041	224.29	1.2702	15.876
0.56041	226.94	1.2697	16.099
0.56041	229.59	1.2692	16.324
0.56041	232.24	1.2687	16.549
0.56041	234.9	1.2682	16.776
0.56041	237.55	1.2677	17.004
0.56041	240.2	1.2672	17.234
0.56041	242.86	1.2666	17.465
0.56041	245.51	1.2661	17.697
0.56041	248.16	1.2656	17.931
0.56041	250.82	1.2651	18.166
0.56041	253.47	1.2645	18.402
0.56041	256.12	1.264	18.639
0.56041	258.78	1.2634	18.879
0.56041	261.43	1.2629	19.119
0.56041	264.08	1.2623	19.361
0.56041	266.73	1.2618	19.605
0.56041	269.39	1.2612	19.85
0.56041	272.04	1.2606	20.097
0.56041	274.69	1.26	20.346
0.56041	277.35	1.2595	20.596
0.56041	280	1.2589	20.848
0.56776	150	1.2825	10.029
0.56776	152.65	1.2821	10.224
0.56776	155.31	1.2818	10.419
0.56776	157.96	1.2814	10.616
0.56776	160.61	1.281	10.812
0.56776	163.27	1.2807	11.01
0.56776	165.92	1.2803	11.209
0.56776	168.57	1.2799	11.408
0.56776	171.22	1.2795	11.609
0.56776	173.88	1.2791	11.81
0.56776	176.53	1.2787	12.013
0.56776	179.18	1.2783	12.216
0.56776	181.84	1.2779	12.42
0.56776	184.49	1.2775	12.625
0.56776	187.14	1.2771	12.831
0.56776	189.8	1.2767	13.038
0.56776	192.45	1.2763	13.246
0.56776	195.1	1.2758	13.455
0.56776	197.76	1.2754	13.665
0.56776	200.41	1.275	13.876
0.56776	203.06	1.2745	14.088
0.56776	205.71	1.2741	14.301
0.56776	208.37	1.2736	14.515
0.56776	211.02	1.2732	14.731
0.56776	213.67	1.2727	14.947
0.56776	216.33	1.2722	15.164
0.56776	218.98	1.2717	15.383
0.56776	221.63	1.2713	15.603
0.56776	224.29	1.2708	15.824
0.56776	226.94	1.2703	16.046
0.56776	229.59	1.2698	16.269
0.56776	232.24	1.2693	16.494
0.56776	234.9	1.2688	16.72
0.56776	237.55	1.2683	16.948
0.56776	240.2	1.2678	17.176
0.56776	242.86	1.2673	17.406
0.56776	245.51	1.2668	17.638
0.56776	248.16	1.2662	17.87
0.56776	250.82	1.2657	18.104
0.56776	253.47	1.2652	18.339
0.56776	256.12	1.2646	18.576
0.56776	258.78	1.2641	18.814
0.56776	261.43	1.2635	19.054
0.56776	264.08	1.263	19.295
0.56776	266.73	1.2624	19.538
0.56776	269.39	1.2619	19.782
0.56776	272.04	1.2613	20.028
0.56776	274.69	1.2607	20.276
0.56776	277.35	1.2601	20.525
0.56776	280	1.2595	20.775
0.5751	150	1.2831	9.9978
0.5751	152.65	1.2827	10.192
0.5751	155.31	1.2824	10.387
0.5751	157.96	1.282	10.582
0.5751	160.61	1.2816	10.778
0.5751	163.27	1.2813	10.975
0.5751	165.92	1.2809	11.173
0.5751	168.57	1.2805	11.372
0.5751	171.22	1.2801	11.572
0.5751	173.88	1.2797	11.773
0.5751	176.53	1.2793	11.975
0.5751	179.18	1.2789	12.177
0.5751	181.84	1.2785	12.381
0.5751	184.49	1.2781	12.585
0.5751	187.14	1.2777	12.79
0.5751	189.8	1.2773	12.996
0.5751	192.45	1.2769	13.203
0.5751	195.1	1.2764	13.411
0.5751	197.76	1.276	13.621
0.5751	200.41	1.2756	13.831
0.5751	203.06	1.2751	14.042
0.5751	205.71	1.2747	14.255
0.5751	208.37	1.2742	14.468
0.5751	211.02	1.2738	14.683
0.5751	213.67	1.2733	14.898
0.5751	216.33	1.2729	15.115
0.5751	218.98	1.2724	15.333
0.5751	221.63	1.2719	15.552
0.5751	224.29	1.2714	15.772
0.5751	226.94	1.2709	15.993
0.5751	229.59	1.2705	16.216
0.5751	232.24	1.27	16.44
0.5751	234.9	1.2695	16.665
0.5751	237.55	1.269	16.891
0.5751	240.2	1.2684	17.119
0.5751	242.86	1.2679	17.348
0.5751	245.51	1.2674	17.578
0.5751	248.16	1.2669	17.81
0.5751	250.82	1.2664	18.043
0.5751	253.47	1.2658	18.277
0.5751	256.12	1.2653	18.513
0.5751	258.78	1.2647	18.75
0.5751	261.43	1.2642	18.989
0.5751	264.08	1.2636	19.229
0.5751	266.73	1.2631	19.471
0.5751	269.39	1.2625	19.714
0.5751	272.04	1.262	19.959
0.5751	274.69	1.2614	20.206
0.5751	277.35	1.2608	20.454
0.5751	280	1.2602	20.703
0.58245	150	1.2837	9.9664
0.58245	152.65	1.2833	10.16
0.58245	155.31	1.283	10.354
0.58245	157.96	1.2826	10.549
0.58245	160.61	1.2823	10.744
0.58245	163.27	1.2819	10.941
0.58245	165.92	1.2815	11.138
0.58245	168.57	1.2811	11.336
0.58245	171.22	1.2807	11.535
0.58245	173.88	1.2803	11.736
0.58245	176.53	1.28	11.937
0.58245	179.18	1.2796	12.139
0.58245	181.84	1.2792	12.341
0.58245	184.49	1.2787	12.545
0.58245	187.14	1.2783	12.749
0.58245	189.8	1.2779	12.955
0.58245	192.45	1.2775	13.161
0.58245	195.1	1.2771	13.368
0.58245	197.76	1.2766	13.577
0.58245	200.41	1.2762	13.786
0.58245	203.06	1.2758	13.997
0.58245	205.71	1.2753	14.208
0.58245	208.37	1.2749	14.421
0.58245	211.02	1.2744	14.635
0.58245	213.67	1.2739	14.85
0.58245	216.33	1.2735	15.066
0.58245	218.98	1.273	15.283
0.58245	221.63	1.2725	15.501
0.58245	224.29	1.2721	15.72
0.58245	226.94	1.2716	15.94
0.58245	229.59	1.2711	16.162
0.58245	232.24	1.2706	16.385
0.58245	234.9	1.2701	16.61
0.58245	237.55	1.2696	16.835
0.58245	240.2	1.2691	17.062
0.58245	242.86	1.2686	17.29
0.58245	245.51	1.2681	17.52
0.58245	248.16	1.2675	17.75
0.58245	250.82	1.267	17.983
0.58245	253.47	1.2665	18.216
0.58245	256.12	1.2659	18.451
0.58245	258.78	1.2654	18.687
0.58245	261.43	1.2649	18.925
0.58245	264.08	1.2643	19.164
0.58245	266.73	1.2637	19.404
0.58245	269.39	1.2632	19.647
0.58245	272.04	1.2626	19.891
0.58245	274.69	1.262	20.136
0.58245	277.35	1.2615	20.383
0.58245	280	1.2609	20.632
0.5898	150	1.2843	9.9353
0.5898	152.65	1.2839	10.128
0.5898	155.31	1.2836	10.322
0.5898	157.96	1.2832	10.516
0.5898	160.61	1.2829	10.711
0.5898	163.27	1.2825	10.906
0.5898	165.92	1.2821	11.103
0.5898	168.57	1.2817	11.301
0.5898	171.22	1.2813	11.499
0.5898	173.88	1.281	11.699
0.5898	176.53	1.2806	11.899
0.5898	179.18	1.2802	12.1
0.5898	181.84	1.2798	12.302
0.5898	184.49	1.2794	12.505
0.5898	187.14	1.2789	12.709
0.5898	189.8	1.2785	12.913
0.5898	192.45	1.2781	13.119
0.5898	195.1	1.2777	13.326
0.5898	197.76	1.2773	13.533
0.5898	200.41	1.2768	13.742
0.5898	203.06	1.2764	13.952
0.5898	205.71	1.2759	14.163
0.5898	208.37	1.2755	14.375
0.5898	211.02	1.275	14.588
0.5898	213.67	1.2746	14.802
0.5898	216.33	1.2741	15.017
0.5898	218.98	1.2736	15.233
0.5898	221.63	1.2732	15.45
0.5898	224.29	1.2727	15.669
0.5898	226.94	1.2722	15.888
0.5898	229.59	1.2717	16.109
0.5898	232.24	1.2712	16.331
0.5898	234.9	1.2707	16.555
0.5898	237.55	1.2702	16.78
0.5898	240.2	1.2697	17.006
0.5898	242.86	1.2692	17.233
0.5898	245.51	1.2687	17.461
0.5898	248.16	1.2682	17.691
0.5898	250.82	1.2677	17.922
0.5898	253.47	1.2671	18.155
0.5898	256.12	1.2666	18.389
0.5898	258.78	1.2661	18.624
0.5898	261.43	1.2655	18.861
0.5898	264.08	1.265	19.099
0.5898	266.73	1.2644	19.339
0.5898	269.39	1.2638	19.58
0.5898	272.04	1.2633	19.823
0.5898	274.69	1.2627	20.067
0.5898	277.35	1.2621	20.313
0.5898	280	1.2615	20.56
0.59714	150	1.2849	9.9044
0.59714	152.65	1.2845	10.097
0.59714	155.31	1.2842	10.289
0.59714	157.96	1.2838	10.483
0.59714	160.61	1.2835	10.677
0.59714	163.27	1.2831	10.872
0.59714	165.92	1.2827	11.068
0.59714	168.57	1.2823	11.265
0.59714	171.22	1.282	11.463
0.59714	173.88	1.2816	11.662
0.59714	176.53	1.2812	11.861
0.59714	179.18	1.2808	12.062
0.59714	181.84	1.2804	12.263
0.59714	184.49	1.28	12.466
0.59714	187.14	1.2796	12.669
0.59714	189.8	1.2791	12.872
0.59714	192.45	1.2787	13.077
0.59714	195.1	1.2783	13.283
0.59714	197.76	1.2779	13.49
0.59714	200.41	1.2774	13.698
0.59714	203.06	1.277	13.907
0.59714	205.71	1.2766	14.117
0.59714	208.37	1.2761	14.328
0.59714	211.02	1.2757	14.541
0.59714	213.67	1.2752	14.754
0.59714	216.33	1.2747	14.968
0.59714	218.98	1.2743	15.184
0.59714	221.63	1.2738	15.4
0.59714	224.29	1.2733	15.618
0.59714	226.94	1.2728	15.836
0.59714	229.59	1.2724	16.057
0.59714	232.24	1.2719	16.278
0.59714	234.9	1.2714	16.501
0.59714	237.55	1.2709	16.724
0.59714	240.2	1.2704	16.95
0.59714	242.86	1.2699	17.176
0.59714	245.51	1.2693	17.404
0.59714	248.16	1.2688	17.633
0.59714	250.82	1.2683	17.863
0.59714	253.47	1.2678	18.094
0.59714	256.12	1.2672	18.327
0.59714	258.78	1.2667	18.561
0.59714	261.43	1.2662	18.797
0.59714	264.08	1.2656	19.034
0.59714	266.73	1.2651	19.273
0.59714	269.39	1.2645	19.513
0.59714	272.04	1.2639	19.755
0.59714	274.69	1.2634	19.999
0.59714	277.35	1.2628	20.244
0.59714	280	1.2622	20.49
0.60449	150	1.2855	9.8737
0.60449	152.65	1.2851	10.065
0.60449	155.31	1.2848	10.257
0.60449	157.96	1.2844	10.45
0.60449	160.61	1.2841	10.644
0.60449	163.27	1.2837	10.838
0.60449	165.92	1.2833	11.034
0.60449	168.57	1.2829	11.23
0.60449	171.22	1.2826	11.427
0.60449	173.88	1.2822	11.625
0.60449	176.53	1.2818	11.824
0.60449	179.18	1.2814	12.024
0.60449	181.84	1.281	12.225
0.60449	184.49	1.2806	12.426
0.60449	187.14	1.2802	12.629
0.60449	189.8	1.2798	12.832
0.60449	192.45	1.2793	13.036
0.60449	195.1	1.2789	13.241
0.60449	197.76	1.2785	13.447
0.60449	200.41	1.2781	13.654
0.60449	203.06	1.2776	13.863
0.60449	205.71	1.2772	14.072
0.60449	208.37	1.2767	14.283
0.60449	211.02	1.2763	14.494
0.60449	213.67	1.2758	14.706
0.60449	216.33	1.2754	14.92
0.60449	218.98	1.2749	15.135
0.60449	221.63	1.2744	15.35
0.60449	224.29	1.274	15.567
0.60449	226.94	1.2735	15.785
0.60449	229.59	1.273	16.004
0.60449	232.24	1.2725	16.225
0.60449	234.9	1.272	16.447
0.60449	237.55	1.2715	16.67
0.60449	240.2	1.271	16.894
0.60449	242.86	1.2705	17.119
0.60449	245.51	1.27	17.346
0.60449	248.16	1.2695	17.574
0.60449	250.82	1.2689	17.803
0.60449	253.47	1.2684	18.034
0.60449	256.12	1.2679	18.266
0.60449	258.78	1.2673	18.499
0.60449	261.43	1.2668	18.734
0.60449	264.08	1.2663	18.97
0.60449	266.73	1.2657	19.208
0.60449	269.39	1.2652	19.447
0.60449	272.04	1.2646	19.688
0.60449	274.69	1.264	19.931
0.60449	277.35	1.2634	20.175
0.60449	280	1.2629	20.42
0.61184	150	1.2861	9.8432
0.61184	152.65	1.2857	10.034
0.61184	155.31	1.2854	10.226
0.61184	157.96	1.285	10.418
0.61184	160.61	1.2847	10.611
0.61184	163.27	1.2843	10.805
0.61184	165.92	1.2839	10.999
0.61184	168.57	1.2836	11.195
0.61184	171.22	1.2832	11.391
0.61184	173.88	1.2828	11.589
0.61184	176.53	1.2824	11.787
0.61184	179.18	1.282	11.986
0.61184	181.84	1.2816	12.186
0.61184	184.49	1.2812	12.387
0.61184	187.14	1.2808	12.589
0.61184	189.8	1.2804	12.791
0.61184	192.45	1.28	12.995
0.61184	195.1	1.2795	13.199
0.61184	197.76	1.2791	13.405
0.61184	200.41	1.2787	13.611
0.61184	203.06	1.2782	13.819
0.61184	205.71	1.2778	14.027
0.61184	208.37	1.2774	14.237
0.61184	211.02	1.2769	14.448
0.61184	213.67	1.2765	14.659
0.61184	216.33	1.276	14.872
0.61184	218.98	1.2755	15.086
0.61184	221.63	1.2751	15.301
0.61184	224.29	1.2746	15.517
0.61184	226.94	1.2741	15.734
0.61184	229.59	1.2736	15.952
0.61184	232.24	1.2731	16.172
0.61184	234.9	1.2726	16.393
0.61184	237.55	1.2721	16.615
0.61184	240.2	1.2716	16.839
0.61184	242.86	1.2711	17.063
0.61184	245.51	1.2706	17.289
0.61184	248.16	1.2701	17.516
0.61184	250.82	1.2696	17.745
0.61184	253.47	1.2691	17.974
0.61184	256.12	1.2685	18.205
0.61184	258.78	1.268	18.438
0.61184	261.43	1.2675	18.672
0.61184	264.08	1.2669	18.907
0.61184	266.73	1.2664	19.144
0.61184	269.39	1.2658	19.382
0.61184	272.04	1.2652	19.622
0.61184	274.69	1.2647	19.863
0.61184	277.35	1.2641	20.106
0.61184	280	1.2635	20.35
0.61918	150	1.2867	9.8129
0.61918	152.65	1.2863	10.003
0.61918	155.31	1.286	10.194
0.61918	157.96	1.2856	10.386
0.61918	160.61	1.2853	10.578
0.61918	163.27	1.2849	10.771
0.61918	165.92	1.2845	10.965
0.61918	168.57	1.2842	11.16
0.61918	171.22	1.2838	11.356
0.61918	173.88	1.2834	11.553
0.61918	176.53	1.283	11.751
0.61918	179.18	1.2826	11.949
0.61918	181.84	1.2822	12.148
0.61918	184.49	1.2818	12.348
0.61918	187.14	1.2814	12.549
0.61918	189.8	1.281	12.751
0.61918	192.45	1.2806	12.954
0.61918	195.1	1.2802	13.158
0.61918	197.76	1.2797	13.362
0.61918	200.41	1.2793	13.568
0.61918	203.06	1.2789	13.775
0.61918	205.71	1.2784	13.983
0.61918	208.37	1.278	14.192
0.61918	211.02	1.2775	14.402
0.61918	213.67	1.2771	14.613
0.61918	216.33	1.2766	14.825
0.61918	218.98	1.2762	15.038
0.61918	221.63	1.2757	15.252
0.61918	224.29	1.2752	15.467
0.61918	226.94	1.2747	15.683
0.61918	229.59	1.2743	15.901
0.61918	232.24	1.2738	16.12
0.61918	234.9	1.2733	16.34
0.61918	237.55	1.2728	16.561
0.61918	240.2	1.2723	16.784
0.61918	242.86	1.2718	17.008
0.61918	245.51	1.2713	17.232
0.61918	248.16	1.2708	17.459
0.61918	250.82	1.2702	17.686
0.61918	253.47	1.2697	17.915
0.61918	256.12	1.2692	18.145
0.61918	258.78	1.2686	18.377
0.61918	261.43	1.2681	18.609
0.61918	264.08	1.2676	18.844
0.61918	266.73	1.267	19.08
0.61918	269.39	1.2665	19.317
0.61918	272.04	1.2659	19.556
0.61918	274.69	1.2653	19.796
0.61918	277.35	1.2648	20.038
0.61918	280	1.2642	20.281
0.62653	150	1.2873	9.7827
0.62653	152.65	1.2869	9.9724
0.62653	155.31	1.2866	10.163
0.62653	157.96	1.2862	10.354
0.62653	160.61	1.2859	10.545
0.62653	163.27	1.2855	10.738
0.62653	165.92	1.2851	10.931
0.62653	168.57	1.2848	11.126
0.62653	171.22	1.2844	11.321
0.62653	173.88	1.284	11.517
0.62653	176.53	1.2836	11.714
0.62653	179.18	1.2832	11.912
0.62653	181.84	1.2828	12.11
0.62653	184.49	1.2824	12.31
0.62653	187.14	1.282	12.51
0.62653	189.8	1.2816	12.711
0.62653	192.45	1.2812	12.913
0.62653	195.1	1.2808	13.116
0.62653	197.76	1.2803	13.32
0.62653	200.41	1.2799	13.525
0.62653	203.06	1.2795	13.732
0.62653	205.71	1.279	13.939
0.62653	208.37	1.2786	14.147
0.62653	211.02	1.2781	14.356
0.62653	213.67	1.2777	14.566
0.62653	216.33	1.2772	14.777
0.62653	218.98	1.2768	14.989
0.62653	221.63	1.2763	15.203
0.62653	224.29	1.2758	15.417
0.62653	226.94	1.2754	15.633
0.62653	229.59	1.2749	15.85
0.62653	232.24	1.2744	16.068
0.62653	234.9	1.2739	16.287
0.62653	237.55	1.2734	16.507
0.62653	240.2	1.2729	16.729
0.62653	242.86	1.2724	16.952
0.62653	245.51	1.2719	17.176
0.62653	248.16	1.2714	17.402
0.62653	250.82	1.2709	17.628
0.62653	253.47	1.2703	17.856
0.62653	256.12	1.2698	18.085
0.62653	258.78	1.2693	18.316
0.62653	261.43	1.2687	18.548
0.62653	264.08	1.2682	18.781
0.62653	266.73	1.2677	19.016
0.62653	269.39	1.2671	19.252
0.62653	272.04	1.2665	19.49
0.62653	274.69	1.266	19.73
0.62653	277.35	1.2654	19.971
0.62653	280	1.2648	20.213
0.63388	150	1.2879	9.7528
0.63388	152.65	1.2875	9.9419
0.63388	155.31	1.2872	10.132
0.63388	157.96	1.2868	10.322
0.63388	160.61	1.2865	10.513
0.63388	163.27	1.2861	10.705
0.63388	165.92	1.2857	10.898
0.63388	168.57	1.2854	11.091
0.63388	171.22	1.285	11.286
0.63388	173.88	1.2846	11.481
0.63388	176.53	1.2842	11.678
0.63388	179.18	1.2838	11.875
0.63388	181.84	1.2834	12.073
0.63388	184.49	1.283	12.272
0.63388	187.14	1.2826	12.471
0.63388	189.8	1.2822	12.672
0.63388	192.45	1.2818	12.873
0.63388	195.1	1.2814	13.075
0.63388	197.76	1.281	13.279
0.63388	200.41	1.2805	13.483
0.63388	203.06	1.2801	13.688
0.63388	205.71	1.2797	13.895
0.63388	208.37	1.2792	14.102
0.63388	211.02	1.2788	14.311
0.63388	213.67	1.2783	14.52
0.63388	216.33	1.2779	14.73
0.63388	218.98	1.2774	14.942
0.63388	221.63	1.2769	15.154
0.63388	224.29	1.2765	15.368
0.63388	226.94	1.276	15.583
0.63388	229.59	1.2755	15.799
0.63388	232.24	1.275	16.016
0.63388	234.9	1.2745	16.235
0.63388	237.55	1.274	16.454
0.63388	240.2	1.2735	16.675
0.63388	242.86	1.273	16.897
0.63388	245.51	1.2725	17.12
0.63388	248.16	1.272	17.345
0.63388	250.82	1.2715	17.571
0.63388	253.47	1.271	17.798
0.63388	256.12	1.2705	18.026
0.63388	258.78	1.2699	18.255
0.63388	261.43	1.2694	18.487
0.63388	264.08	1.2689	18.719
0.63388	266.73	1.2683	18.953
0.63388	269.39	1.2678	19.188
0.63388	272.04	1.2672	19.425
0.63388	274.69	1.2666	19.664
0.63388	277.35	1.2661	19.904
0.63388	280	1.2655	20.145
0.64122	150	1.2885	9.723
0.64122	152.65	1.2881	9.9115
0.64122	155.31	1.2878	10.101
0.64122	157.96	1.2874	10.29
0.64122	160.61	1.2871	10.481
0.64122	163.27	1.2867	10.672
0.64122	165.92	1.2863	10.864
0.64122	168.57	1.286	11.057
0.64122	171.22	1.2856	11.251
0.64122	173.88	1.2852	11.446
0.64122	176.53	1.2848	11.642
0.64122	179.18	1.2844	11.838
0.64122	181.84	1.284	12.036
0.64122	184.49	1.2836	12.234
0.64122	187.14	1.2832	12.432
0.64122	189.8	1.2828	12.632
0.64122	192.45	1.2824	12.833
0.64122	195.1	1.282	13.034
0.64122	197.76	1.2816	13.237
0.64122	200.41	1.2811	13.441
0.64122	203.06	1.2807	13.645
0.64122	205.71	1.2803	13.851
0.64122	208.37	1.2798	14.058
0.64122	211.02	1.2794	14.266
0.64122	213.67	1.2789	14.474
0.64122	216.33	1.2785	14.684
0.64122	218.98	1.278	14.894
0.64122	221.63	1.2776	15.106
0.64122	224.29	1.2771	15.319
0.64122	226.94	1.2766	15.533
0.64122	229.59	1.2761	15.748
0.64122	232.24	1.2757	15.965
0.64122	234.9	1.2752	16.182
0.64122	237.55	1.2747	16.401
0.64122	240.2	1.2742	16.621
0.64122	242.86	1.2737	16.843
0.64122	245.51	1.2732	17.065
0.64122	248.16	1.2727	17.289
0.64122	250.82	1.2721	17.513
0.64122	253.47	1.2716	17.739
0.64122	256.12	1.2711	17.967
0.64122	258.78	1.2706	18.196
0.64122	261.43	1.27	18.426
0.64122	264.08	1.2695	18.657
0.64122	266.73	1.2689	18.89
0.64122	269.39	1.2684	19.125
0.64122	272.04	1.2678	19.361
0.64122	274.69	1.2673	19.598
0.64122	277.35	1.2667	19.837
0.64122	280	1.2662	20.077
0.64857	150	1.2891	9.6935
0.64857	152.65	1.2887	9.8814
0.64857	155.31	1.2884	10.07
0.64857	157.96	1.288	10.259
0.64857	160.61	1.2877	10.449
0.64857	163.27	1.2873	10.639
0.64857	165.92	1.2869	10.831
0.64857	168.57	1.2866	11.023
0.64857	171.22	1.2862	11.217
0.64857	173.88	1.2858	11.411
0.64857	176.53	1.2854	11.606
0.64857	179.18	1.285	11.802
0.64857	181.84	1.2846	11.998
0.64857	184.49	1.2842	12.196
0.64857	187.14	1.2838	12.394
0.64857	189.8	1.2834	12.593
0.64857	192.45	1.283	12.793
0.64857	195.1	1.2826	12.994
0.64857	197.76	1.2822	13.196
0.64857	200.41	1.2817	13.399
0.64857	203.06	1.2813	13.603
0.64857	205.71	1.2809	13.808
0.64857	208.37	1.2804	14.014
0.64857	211.02	1.28	14.221
0.64857	213.67	1.2795	14.429
0.64857	216.33	1.2791	14.638
0.64857	218.98	1.2786	14.847
0.64857	221.63	1.2782	15.058
0.64857	224.29	1.2777	15.27
0.64857	226.94	1.2772	15.484
0.64857	229.59	1.2768	15.698
0.64857	232.24	1.2763	15.914
0.64857	234.9	1.2758	16.131
0.64857	237.55	1.2753	16.349
0.64857	240.2	1.2748	16.568
0.64857	242.86	1.2743	16.788
0.64857	245.51	1.2738	17.01
0.64857	248.16	1.2733	17.233
0.64857	250.82	1.2728	17.457
0.64857	253.47	1.2723	17.682
0.64857	256.12	1.2717	17.908
0.64857	258.78	1.2712	18.136
0.64857	261.43	1.2707	18.365
0.64857	264.08	1.2701	18.596
0.64857	266.73	1.2696	18.828
0.64857	269.39	1.269	19.062
0.64857	272.04	1.2685	19.297
0.64857	274.69	1.2679	19.533
0.64857	277.35	1.2674	19.771
0.64857	280	1.2668	20.01
0.65592	150	1.2897	9.6641
0.65592	152.65	1.2893	9.8514
0.65592	155.31	1.289	10.039
0.65592	157.96	1.2886	10.228
0.65592	160.61	1.2883	10.417
0.65592	163.27	1.2879	10.607
0.65592	165.92	1.2875	10.798
0.65592	168.57	1.2872	10.99
0.65592	171.22	1.2868	11.182
0.65592	173.88	1.2864	11.376
0.65592	176.53	1.286	11.57
0.65592	179.18	1.2856	11.766
0.65592	181.84	1.2852	11.962
0.65592	184.49	1.2848	12.158
0.65592	187.14	1.2844	12.356
0.65592	189.8	1.284	12.554
0.65592	192.45	1.2836	12.753
0.65592	195.1	1.2832	12.954
0.65592	197.76	1.2828	13.155
0.65592	200.41	1.2824	13.357
0.65592	203.06	1.2819	13.561
0.65592	205.71	1.2815	13.765
0.65592	208.37	1.2811	13.97
0.65592	211.02	1.2806	14.176
0.65592	213.67	1.2802	14.383
0.65592	216.33	1.2797	14.592
0.65592	218.98	1.2793	14.801
0.65592	221.63	1.2788	15.011
0.65592	224.29	1.2783	15.222
0.65592	226.94	1.2779	15.435
0.65592	229.59	1.2774	15.648
0.65592	232.24	1.2769	15.863
0.65592	234.9	1.2764	16.079
0.65592	237.55	1.2759	16.297
0.65592	240.2	1.2754	16.515
0.65592	242.86	1.2749	16.734
0.65592	245.51	1.2744	16.955
0.65592	248.16	1.2739	17.177
0.65592	250.82	1.2734	17.4
0.65592	253.47	1.2729	17.625
0.65592	256.12	1.2724	17.85
0.65592	258.78	1.2718	18.077
0.65592	261.43	1.2713	18.305
0.65592	264.08	1.2708	18.535
0.65592	266.73	1.2702	18.766
0.65592	269.39	1.2697	18.999
0.65592	272.04	1.2691	19.233
0.65592	274.69	1.2686	19.469
0.65592	277.35	1.268	19.706
0.65592	280	1.2675	19.944
0.66327	150	1.2902	9.6349
0.66327	152.65	1.2899	9.8216
0.66327	155.31	1.2896	10.009
0.66327	157.96	1.2892	10.197
0.66327	160.61	1.2888	10.385
0.66327	163.27	1.2885	10.575
0.66327	165.92	1.2881	10.765
0.66327	168.57	1.2878	10.956
0.66327	171.22	1.2874	11.148
0.66327	173.88	1.287	11.341
0.66327	176.53	1.2866	11.535
0.66327	179.18	1.2862	11.73
0.66327	181.84	1.2858	11.925
0.66327	184.49	1.2854	12.121
0.66327	187.14	1.285	12.318
0.66327	189.8	1.2846	12.516
0.66327	192.45	1.2842	12.714
0.66327	195.1	1.2838	12.914
0.66327	197.76	1.2834	13.114
0.66327	200.41	1.283	13.316
0.66327	203.06	1.2825	13.518
0.66327	205.71	1.2821	13.722
0.66327	208.37	1.2817	13.927
0.66327	211.02	1.2812	14.132
0.66327	213.67	1.2808	14.338
0.66327	216.33	1.2803	14.546
0.66327	218.98	1.2799	14.754
0.66327	221.63	1.2794	14.964
0.66327	224.29	1.2789	15.174
0.66327	226.94	1.2785	15.386
0.66327	229.59	1.278	15.599
0.66327	232.24	1.2775	15.813
0.66327	234.9	1.277	16.028
0.66327	237.55	1.2766	16.245
0.66327	240.2	1.2761	16.462
0.66327	242.86	1.2756	16.681
0.66327	245.51	1.2751	16.901
0.66327	248.16	1.2746	17.122
0.66327	250.82	1.274	17.344
0.66327	253.47	1.2735	17.568
0.66327	256.12	1.273	17.792
0.66327	258.78	1.2725	18.018
0.66327	261.43	1.272	18.246
0.66327	264.08	1.2714	18.475
0.66327	266.73	1.2709	18.705
0.66327	269.39	1.2703	18.937
0.66327	272.04	1.2698	19.17
0.66327	274.69	1.2692	19.405
0.66327	277.35	1.2687	19.641
0.66327	280	1.2681	19.878
0.67061	150	1.2908	9.6059
0.67061	152.65	1.2905	9.792
0.67061	155.31	1.2901	9.9787
0.67061	157.96	1.2898	10.166
0.67061	160.61	1.2894	10.354
0.67061	163.27	1.2891	10.543
0.67061	165.92	1.2887	10.732
0.67061	168.57	1.2883	10.923
0.67061	171.22	1.288	11.115
0.67061	173.88	1.2876	11.307
0.67061	176.53	1.2872	11.5
0.67061	179.18	1.2868	11.694
0.67061	181.84	1.2864	11.889
0.67061	184.49	1.286	12.084
0.67061	187.14	1.2856	12.28
0.67061	189.8	1.2852	12.477
0.67061	192.45	1.2848	12.675
0.67061	195.1	1.2844	12.874
0.67061	197.76	1.284	13.074
0.67061	200.41	1.2836	13.275
0.67061	203.06	1.2831	13.477
0.67061	205.71	1.2827	13.68
0.67061	208.37	1.2823	13.883
0.67061	211.02	1.2818	14.088
0.67061	213.67	1.2814	14.294
0.67061	216.33	1.2809	14.501
0.67061	218.98	1.2805	14.708
0.67061	221.63	1.28	14.917
0.67061	224.29	1.2796	15.127
0.67061	226.94	1.2791	15.338
0.67061	229.59	1.2786	15.55
0.67061	232.24	1.2781	15.763
0.67061	234.9	1.2777	15.978
0.67061	237.55	1.2772	16.193
0.67061	240.2	1.2767	16.41
0.67061	242.86	1.2762	16.628
0.67061	245.51	1.2757	16.847
0.67061	248.16	1.2752	17.067
0.67061	250.82	1.2747	17.289
0.67061	253.47	1.2742	17.511
0.67061	256.12	1.2736	17.735
0.67061	258.78	1.2731	17.96
0.67061	261.43	1.2726	18.187
0.67061	264.08	1.2721	18.415
0.67061	266.73	1.2715	18.644
0.67061	269.39	1.271	18.875
0.67061	272.04	1.2704	19.107
0.67061	274.69	1.2699	19.341
0.67061	277.35	1.2693	19.576
0.67061	280	1.2688	19.812
0.67796	150	1.2914	9.5771
0.67796	152.65	1.2911	9.7626
0.67796	155.31	1.2907	9.9487
0.67796	157.96	1.2904	10.135
0.67796	160.61	1.29	10.323
0.67796	163.27	1.2897	10.511
0.67796	165.92	1.2893	10.7
0.67796	168.57	1.2889	10.89
0.67796	171.22	1.2886	11.081
0.67796	173.88	1.2882	11.273
0.67796	176.53	1.2878	11.465
0.67796	179.18	1.2874	11.658
0.67796	181.84	1.287	11.852
0.67796	184.49	1.2866	12.047
0.67796	187.14	1.2862	12.243
0.67796	189.8	1.2858	12.439
0.67796	192.45	1.2854	12.636
0.67796	195.1	1.285	12.835
0.67796	197.76	1.2846	13.034
0.67796	200.41	1.2842	13.234
0.67796	203.06	1.2838	13.435
0.67796	205.71	1.2833	13.637
0.67796	208.37	1.2829	13.841
0.67796	211.02	1.2824	14.045
0.67796	213.67	1.282	14.25
0.67796	216.33	1.2816	14.455
0.67796	218.98	1.2811	14.662
0.67796	221.63	1.2806	14.87
0.67796	224.29	1.2802	15.079
0.67796	226.94	1.2797	15.29
0.67796	229.59	1.2792	15.501
0.67796	232.24	1.2788	15.713
0.67796	234.9	1.2783	15.927
0.67796	237.55	1.2778	16.142
0.67796	240.2	1.2773	16.358
0.67796	242.86	1.2768	16.575
0.67796	245.51	1.2763	16.793
0.67796	248.16	1.2758	17.013
0.67796	250.82	1.2753	17.233
0.67796	253.47	1.2748	17.455
0.67796	256.12	1.2743	17.678
0.67796	258.78	1.2737	17.902
0.67796	261.43	1.2732	18.128
0.67796	264.08	1.2727	18.355
0.67796	266.73	1.2722	18.584
0.67796	269.39	1.2716	18.814
0.67796	272.04	1.2711	19.045
0.67796	274.69	1.2705	19.278
0.67796	277.35	1.27	19.512
0.67796	280	1.2694	19.747
0.68531	150	1.292	9.5484
0.68531	152.65	1.2917	9.7334
0.68531	155.31	1.2913	9.9188
0.68531	157.96	1.291	10.105
0.68531	160.61	1.2906	10.292
0.68531	163.27	1.2903	10.479
0.68531	165.92	1.2899	10.668
0.68531	168.57	1.2895	10.857
0.68531	171.22	1.2892	11.048
0.68531	173.88	1.2888	11.239
0.68531	176.53	1.2884	11.431
0.68531	179.18	1.288	11.623
0.68531	181.84	1.2876	11.816
0.68531	184.49	1.2872	12.011
0.68531	187.14	1.2868	12.206
0.68531	189.8	1.2864	12.401
0.68531	192.45	1.286	12.598
0.68531	195.1	1.2856	12.795
0.68531	197.76	1.2852	12.994
0.68531	200.41	1.2848	13.193
0.68531	203.06	1.2844	13.394
0.68531	205.71	1.2839	13.595
0.68531	208.37	1.2835	13.798
0.68531	211.02	1.2831	14.001
0.68531	213.67	1.2826	14.205
0.68531	216.33	1.2822	14.411
0.68531	218.98	1.2817	14.617
0.68531	221.63	1.2813	14.824
0.68531	224.29	1.2808	15.032
0.68531	226.94	1.2803	15.242
0.68531	229.59	1.2799	15.452
0.68531	232.24	1.2794	15.664
0.68531	234.9	1.2789	15.877
0.68531	237.55	1.2784	16.091
0.68531	240.2	1.2779	16.306
0.68531	242.86	1.2774	16.523
0.68531	245.51	1.2769	16.74
0.68531	248.16	1.2764	16.959
0.68531	250.82	1.2759	17.178
0.68531	253.47	1.2754	17.399
0.68531	256.12	1.2749	17.622
0.68531	258.78	1.2744	17.845
0.68531	261.43	1.2739	18.07
0.68531	264.08	1.2733	18.296
0.68531	266.73	1.2728	18.524
0.68531	269.39	1.2722	18.753
0.68531	272.04	1.2717	18.983
0.68531	274.69	1.2712	19.215
0.68531	277.35	1.2706	19.448
0.68531	280	1.27	19.683
0.69265	150	1.2926	9.52
0.69265	152.65	1.2923	9.7043
0.69265	155.31	1.2919	9.8892
0.69265	157.96	1.2916	10.075
0.69265	160.61	1.2912	10.261
0.69265	163.27	1.2909	10.448
0.69265	165.92	1.2905	10.636
0.69265	168.57	1.2901	10.825
0.69265	171.22	1.2898	11.014
0.69265	173.88	1.2894	11.205
0.69265	176.53	1.289	11.396
0.69265	179.18	1.2886	11.588
0.69265	181.84	1.2882	11.781
0.69265	184.49	1.2878	11.974
0.69265	187.14	1.2874	12.169
0.69265	189.8	1.287	12.364
0.69265	192.45	1.2866	12.56
0.69265	195.1	1.2862	12.756
0.69265	197.76	1.2858	12.954
0.69265	200.41	1.2854	13.153
0.69265	203.06	1.285	13.353
0.69265	205.71	1.2845	13.554
0.69265	208.37	1.2841	13.756
0.69265	211.02	1.2837	13.958
0.69265	213.67	1.2832	14.162
0.69265	216.33	1.2828	14.366
0.69265	218.98	1.2823	14.572
0.69265	221.63	1.2819	14.778
0.69265	224.29	1.2814	14.986
0.69265	226.94	1.2809	15.194
0.69265	229.59	1.2805	15.404
0.69265	232.24	1.28	15.615
0.69265	234.9	1.2795	15.827
0.69265	237.55	1.279	16.041
0.69265	240.2	1.2786	16.255
0.69265	242.86	1.2781	16.471
0.69265	245.51	1.2776	16.687
0.69265	248.16	1.2771	16.905
0.69265	250.82	1.2766	17.124
0.69265	253.47	1.276	17.344
0.69265	256.12	1.2755	17.565
0.69265	258.78	1.275	17.788
0.69265	261.43	1.2745	18.012
0.69265	264.08	1.274	18.237
0.69265	266.73	1.2734	18.464
0.69265	269.39	1.2729	18.692
0.69265	272.04	1.2723	18.922
0.69265	274.69	1.2718	19.153
0.69265	277.35	1.2712	19.385
0.69265	280	1.2707	19.618
0.7	150	1.2932	9.4917
0.7	152.65	1.2928	9.6755
0.7	155.31	1.2925	9.8598
0.7	157.96	1.2921	10.045
0.7	160.61	1.2918	10.23
0.7	163.27	1.2914	10.417
0.7	165.92	1.2911	10.604
0.7	168.57	1.2907	10.792
0.7	171.22	1.2903	10.981
0.7	173.88	1.29	11.171
0.7	176.53	1.2896	11.362
0.7	179.18	1.2892	11.553
0.7	181.84	1.2888	11.745
0.7	184.49	1.2884	11.938
0.7	187.14	1.288	12.132
0.7	189.8	1.2876	12.326
0.7	192.45	1.2872	12.522
0.7	195.1	1.2868	12.718
0.7	197.76	1.2864	12.915
0.7	200.41	1.286	13.113
0.7	203.06	1.2856	13.312
0.7	205.71	1.2851	13.512
0.7	208.37	1.2847	13.713
0.7	211.02	1.2843	13.915
0.7	213.67	1.2838	14.118
0.7	216.33	1.2834	14.322
0.7	218.98	1.2829	14.527
0.7	221.63	1.2825	14.733
0.7	224.29	1.282	14.939
0.7	226.94	1.2816	15.147
0.7	229.59	1.2811	15.356
0.7	232.24	1.2806	15.567
0.7	234.9	1.2801	15.778
0.7	237.55	1.2797	15.991
0.7	240.2	1.2792	16.204
0.7	242.86	1.2787	16.419
0.7	245.51	1.2782	16.635
0.7	248.16	1.2777	16.852
0.7	250.82	1.2772	17.07
0.7	253.47	1.2767	17.289
0.7	256.12	1.2762	17.51
0.7	258.78	1.2756	17.731
0.7	261.43	1.2751	17.955
0.7	264.08	1.2746	18.179
0.7	266.73	1.2741	18.405
0.7	269.39	1.2735	18.632
0.7	272.04	1.273	18.861
0.7	274.69	1.2724	19.091
0.7	277.35	1.2719	19.322
0.7	280	1.2713	19.555
