Press (GPa)	Temp (K)	Density (g/cm^-3)	dT/dP (K/GPa)
1e-06	240	0.97881	-83.613
1e-06	245.31	0.98651	-61.768
1e-06	250.61	0.99167	-44.65
1e-06	255.92	0.99515	-31.341
1e-06	261.22	0.99746	-21.071
1e-06	266.53	0.99891	-12.848
1e-06	271.84	0.99969	-5.9634
1e-06	277.14	0.99993	-0.0061744
1e-06	282.45	0.99971	5.2685
1e-06	287.76	0.99911	10.039
1e-06	293.06	0.99818	14.441
1e-06	298.37	0.99695	18.555
1e-06	303.67	0.99545	22.473
1e-06	308.98	0.9937	26.231
1e-06	314.29	0.99173	29.879
1e-06	319.59	0.98956	33.446
1e-06	324.9	0.98719	36.96
1e-06	330.2	0.98464	40.442
1e-06	335.51	0.98192	43.912
1e-06	340.82	0.97904	47.385
1e-06	346.12	0.976	50.875
1e-06	351.43	0.97281	54.394
1e-06	356.73	0.96948	57.955
1e-06	362.04	0.96601	61.568
1e-06	367.35	0.9624	65.242
1e-06	372.65	0.95866	68.988
1e-06	377.96	0.95479	72.815
1e-06	383.27	0.95079	76.733
1e-06	388.57	0.94667	80.751
1e-06	393.88	0.94242	84.88
1e-06	399.18	0.93804	89.131
1e-06	404.49	0.93355	93.514
1e-06	409.8	0.92892	98.042
1e-06	415.1	0.92418	102.73
1e-06	420.41	0.9193	107.58
1e-06	425.71	0.9143	112.62
1e-06	431.02	0.90918	117.87
1e-06	436.33	0.90391	123.33
1e-06	441.63	0.89852	129.03
1e-06	446.94	0.89298	134.99
1e-06	452.24	0.88731	141.24
1e-06	457.55	0.88149	147.79
1e-06	462.86	0.87551	154.69
1e-06	468.16	0.86938	161.97
1e-06	473.47	0.86308	169.64
1e-06	478.78	0.85661	177.77
1e-06	484.08	0.84996	186.41
1e-06	489.39	0.84311	195.61
1e-06	494.69	0.83607	205.42
1e-06	500	0.8288	215.87
1.1595e-06	240	0.97881	-83.613
1.1595e-06	245.31	0.98651	-61.768
1.1595e-06	250.61	0.99167	-44.65
1.1595e-06	255.92	0.99515	-31.341
1.1595e-06	261.22	0.99746	-21.071
1.1595e-06	266.53	0.99891	-12.848
1.1595e-06	271.84	0.99969	-5.9634
1.1595e-06	277.14	0.99993	-0.0061401
1.1595e-06	282.45	0.99971	5.2685
1.1595e-06	287.76	0.99911	10.039
1.1595e-06	293.06	0.99818	14.441
1.1595e-06	298.37	0.99695	18.555
1.1595e-06	303.67	0.99545	22.473
1.1595e-06	308.98	0.9937	26.231
1.1595e-06	314.29	0.99173	29.879
1.1595e-06	319.59	0.98956	33.446
1.1595e-06	324.9	0.98719	36.96
1.1595e-06	330.2	0.98464	40.442
1.1595e-06	335.51	0.98192	43.912
1.1595e-06	340.82	0.97904	47.385
1.1595e-06	346.12	0.976	50.875
1.1595e-06	351.43	0.97281	54.394
1.1595e-06	356.73	0.96948	57.955
1.1595e-06	362.04	0.96601	61.568
1.1595e-06	367.35	0.9624	65.242
1.1595e-06	372.65	0.95866	68.988
1.1595e-06	377.96	0.95479	72.815
1.1595e-06	383.27	0.95079	76.732
1.1595e-06	388.57	0.94667	80.751
1.1595e-06	393.88	0.94242	84.88
1.1595e-06	399.18	0.93804	89.131
1.1595e-06	404.49	0.93355	93.514
1.1595e-06	409.8	0.92892	98.042
1.1595e-06	415.1	0.92418	102.73
1.1595e-06	420.41	0.9193	107.58
1.1595e-06	425.71	0.9143	112.62
1.1595e-06	431.02	0.90918	117.87
1.1595e-06	436.33	0.90391	123.33
1.1595e-06	441.63	0.89852	129.03
1.1595e-06	446.94	0.89298	134.99
1.1595e-06	452.24	0.88731	141.24
1.1595e-06	457.55	0.88149	147.79
1.1595e-06	462.86	0.87551	154.69
1.1595e-06	468.16	0.86938	161.97
1.1595e-06	473.47	0.86308	169.64
1.1595e-06	478.78	0.85661	177.77
1.1595e-06	484.08	0.84996	186.41
1.1595e-06	489.39	0.84311	195.61
1.1595e-06	494.69	0.83607	205.42
1.1595e-06	500	0.8288	215.87
1.3444e-06	240	0.97881	-83.613
1.3444e-06	245.31	0.98651	-61.768
1.3444e-06	250.61	0.99167	-44.65
1.3444e-06	255.92	0.99515	-31.341
1.3444e-06	261.22	0.99746	-21.071
1.3444e-06	266.53	0.99891	-12.848
1.3444e-06	271.84	0.99969	-5.9634
1.3444e-06	277.14	0.99993	-0.0061004
1.3444e-06	282.45	0.99971	5.2686
1.3444e-06	287.76	0.99911	10.039
1.3444e-06	293.06	0.99818	14.441
1.3444e-06	298.37	0.99695	18.555
1.3444e-06	303.67	0.99545	22.473
1.3444e-06	308.98	0.9937	26.231
1.3444e-06	314.29	0.99173	29.879
1.3444e-06	319.59	0.98956	33.446
1.3444e-06	324.9	0.98719	36.96
1.3444e-06	330.2	0.98464	40.442
1.3444e-06	335.51	0.98192	43.912
1.3444e-06	340.82	0.97904	47.385
1.3444e-06	346.12	0.976	50.875
1.3444e-06	351.43	0.97281	54.394
1.3444e-06	356.73	0.96948	57.955
1.3444e-06	362.04	0.96601	61.568
1.3444e-06	367.35	0.9624	65.242
1.3444e-06	372.65	0.95866	68.988
1.3444e-06	377.96	0.95479	72.815
1.3444e-06	383.27	0.95079	76.732
1.3444e-06	388.57	0.94667	80.751
1.3444e-06	393.88	0.94242	84.88
1.3444e-06	399.18	0.93804	89.131
1.3444e-06	404.49	0.93355	93.514
1.3444e-06	409.8	0.92892	98.042
1.3444e-06	415.1	0.92418	102.73
1.3444e-06	420.41	0.9193	107.58
1.3444e-06	425.71	0.9143	112.62
1.3444e-06	431.02	0.90918	117.87
1.3444e-06	436.33	0.90391	123.33
1.3444e-06	441.63	0.89852	129.03
1.3444e-06	446.94	0.89298	134.99
1.3444e-06	452.24	0.88731	141.24
1.3444e-06	457.55	0.88149	147.79
1.3444e-06	462.86	0.87551	154.69
1.3444e-06	468.16	0.86938	161.97
1.3444e-06	473.47	0.86308	169.64
1.3444e-06	478.78	0.85661	177.77
1.3444e-06	484.08	0.84996	186.4
1.3444e-06	489.39	0.84311	195.61
1.3444e-06	494.69	0.83607	205.42
1.3444e-06	500	0.8288	215.87
1.5588e-06	240	0.97881	-83.613
1.5588e-06	245.31	0.98651	-61.768
1.5588e-06	250.61	0.99167	-44.65
1.5588e-06	255.92	0.99515	-31.341
1.5588e-06	261.22	0.99746	-21.071
1.5588e-06	266.53	0.99891	-12.848
1.5588e-06	271.84	0.99969	-5.9633
1.5588e-06	277.14	0.99993	-0.0060543
1.5588e-06	282.45	0.99971	5.2686
1.5588e-06	287.76	0.99911	10.039
1.5588e-06	293.06	0.99818	14.441
1.5588e-06	298.37	0.99695	18.555
1.5588e-06	303.67	0.99545	22.473
1.5588e-06	308.98	0.9937	26.231
1.5588e-06	314.29	0.99173	29.879
1.5588e-06	319.59	0.98956	33.446
1.5588e-06	324.9	0.98719	36.96
1.5588e-06	330.2	0.98464	40.442
1.5588e-06	335.51	0.98192	43.912
1.5588e-06	340.82	0.97904	47.385
1.5588e-06	346.12	0.976	50.875
1.5588e-06	351.43	0.97281	54.394
1.5588e-06	356.73	0.96948	57.955
1.5588e-06	362.04	0.96601	61.568
1.5588e-06	367.35	0.9624	65.242
1.5588e-06	372.65	0.95866	68.988
1.5588e-06	377.96	0.95479	72.815
1.5588e-06	383.27	0.95079	76.732
1.5588e-06	388.57	0.94667	80.751
1.5588e-06	393.88	0.94242	84.88
1.5588e-06	399.18	0.93804	89.131
1.5588e-06	404.49	0.93355	93.514
1.5588e-06	409.8	0.92892	98.042
1.5588e-06	415.1	0.92418	102.73
1.5588e-06	420.41	0.91931	107.58
1.5588e-06	425.71	0.9143	112.62
1.5588e-06	431.02	0.90918	117.87
1.5588e-06	436.33	0.90391	123.33
1.5588e-06	441.63	0.89852	129.03
1.5588e-06	446.94	0.89298	134.99
1.5588e-06	452.24	0.88731	141.24
1.5588e-06	457.55	0.88149	147.79
1.5588e-06	462.86	0.87551	154.69
1.5588e-06	468.16	0.86938	161.97
1.5588e-06	473.47	0.86308	169.64
1.5588e-06	478.78	0.85661	177.77
1.5588e-06	484.08	0.84996	186.4
1.5588e-06	489.39	0.84311	195.61
1.5588e-06	494.69	0.83607	205.42
1.5588e-06	500	0.8288	215.87
1.8073e-06	240	0.97881	-83.613
1.8073e-06	245.31	0.98651	-61.768
1.8073e-06	250.61	0.99167	-44.65
1.8073e-06	255.92	0.99515	-31.341
1.8073e-06	261.22	0.99746	-21.071
1.8073e-06	266.53	0.99891	-12.848
1.8073e-06	271.84	0.99969	-5.9632
1.8073e-06	277.14	0.99993	-0.0060009
1.8073e-06	282.45	0.99971	5.2687
1.8073e-06	287.76	0.99911	10.04
1.8073e-06	293.06	0.99818	14.441
1.8073e-06	298.37	0.99695	18.555
1.8073e-06	303.67	0.99545	22.473
1.8073e-06	308.98	0.9937	26.231
1.8073e-06	314.29	0.99173	29.879
1.8073e-06	319.59	0.98956	33.446
1.8073e-06	324.9	0.98719	36.96
1.8073e-06	330.2	0.98464	40.442
1.8073e-06	335.51	0.98192	43.912
1.8073e-06	340.82	0.97904	47.385
1.8073e-06	346.12	0.976	50.875
1.8073e-06	351.43	0.97281	54.394
1.8073e-06	356.73	0.96948	57.955
1.8073e-06	362.04	0.96601	61.568
1.8073e-06	367.35	0.9624	65.242
1.8073e-06	372.65	0.95866	68.988
1.8073e-06	377.96	0.95479	72.815
1.8073e-06	383.27	0.95079	76.732
1.8073e-06	388.57	0.94667	80.751
1.8073e-06	393.88	0.94242	84.88
1.8073e-06	399.18	0.93804	89.131
1.8073e-06	404.49	0.93355	93.514
1.8073e-06	409.8	0.92892	98.042
1.8073e-06	415.1	0.92418	102.73
1.8073e-06	420.41	0.91931	107.58
1.8073e-06	425.71	0.91431	112.62
1.8073e-06	431.02	0.90918	117.87
1.8073e-06	436.33	0.90391	123.33
1.8073e-06	441.63	0.89852	129.03
1.8073e-06	446.94	0.89298	134.99
1.8073e-06	452.24	0.88731	141.24
1.8073e-06	457.55	0.88149	147.79
1.8073e-06	462.86	0.87551	154.69
1.8073e-06	468.16	0.86938	161.96
1.8073e-06	473.47	0.86308	169.64
1.8073e-06	478.78	0.85661	177.77
1.8073e-06	484.08	0.84996	186.4
1.8073e-06	489.39	0.84311	195.61
1.8073e-06	494.69	0.83607	205.42
1.8073e-06	500	0.8288	215.87
2.0956e-06	240	0.97881	-83.612
2.0956e-06	245.31	0.98651	-61.767
2.0956e-06	250.61	0.99167	-44.65
2.0956e-06	255.92	0.99515	-31.341
2.0956e-06	261.22	0.99746	-21.071
2.0956e-06	266.53	0.99891	-12.848
2.0956e-06	271.84	0.99969	-5.9632
2.0956e-06	277.14	0.99993	-0.0059389
2.0956e-06	282.45	0.99971	5.2687
2.0956e-06	287.76	0.99911	10.04
2.0956e-06	293.06	0.99818	14.441
2.0956e-06	298.37	0.99695	18.555
2.0956e-06	303.67	0.99545	22.473
2.0956e-06	308.98	0.9937	26.231
2.0956e-06	314.29	0.99173	29.879
2.0956e-06	319.59	0.98956	33.446
2.0956e-06	324.9	0.98719	36.96
2.0956e-06	330.2	0.98464	40.442
2.0956e-06	335.51	0.98192	43.912
2.0956e-06	340.82	0.97904	47.385
2.0956e-06	346.12	0.976	50.875
2.0956e-06	351.43	0.97281	54.394
2.0956e-06	356.73	0.96948	57.955
2.0956e-06	362.04	0.96601	61.568
2.0956e-06	367.35	0.9624	65.242
2.0956e-06	372.65	0.95866	68.988
2.0956e-06	377.96	0.95479	72.815
2.0956e-06	383.27	0.95079	76.732
2.0956e-06	388.57	0.94667	80.751
2.0956e-06	393.88	0.94242	84.88
2.0956e-06	399.18	0.93804	89.131
2.0956e-06	404.49	0.93355	93.514
2.0956e-06	409.8	0.92892	98.042
2.0956e-06	415.1	0.92418	102.73
2.0956e-06	420.41	0.91931	107.58
2.0956e-06	425.71	0.91431	112.62
2.0956e-06	431.02	0.90918	117.87
2.0956e-06	436.33	0.90391	123.33
2.0956e-06	441.63	0.89852	129.03
2.0956e-06	446.94	0.89299	134.99
2.0956e-06	452.24	0.88731	141.24
2.0956e-06	457.55	0.88149	147.79
2.0956e-06	462.86	0.87551	154.69
2.0956e-06	468.16	0.86938	161.96
2.0956e-06	473.47	0.86308	169.64
2.0956e-06	478.78	0.85661	177.77
2.0956e-06	484.08	0.84996	186.4
2.0956e-06	489.39	0.84312	195.61
2.0956e-06	494.69	0.83607	205.42
2.0956e-06	500	0.8288	215.87
2.4297e-06	240	0.97881	-83.612
2.4297e-06	245.31	0.98651	-61.767
2.4297e-06	250.61	0.99167	-44.649
2.4297e-06	255.92	0.99515	-31.34
2.4297e-06	261.22	0.99746	-21.07
2.4297e-06	266.53	0.99891	-12.847
2.4297e-06	271.84	0.99969	-5.9631
2.4297e-06	277.14	0.99993	-0.0058671
2.4297e-06	282.45	0.99971	5.2688
2.4297e-06	287.76	0.99912	10.04
2.4297e-06	293.06	0.99818	14.442
2.4297e-06	298.37	0.99695	18.555
2.4297e-06	303.67	0.99545	22.473
2.4297e-06	308.98	0.9937	26.231
2.4297e-06	314.29	0.99173	29.879
2.4297e-06	319.59	0.98956	33.446
2.4297e-06	324.9	0.98719	36.96
2.4297e-06	330.2	0.98464	40.442
2.4297e-06	335.51	0.98192	43.912
2.4297e-06	340.82	0.97904	47.385
2.4297e-06	346.12	0.976	50.875
2.4297e-06	351.43	0.97281	54.394
2.4297e-06	356.73	0.96948	57.955
2.4297e-06	362.04	0.96601	61.568
2.4297e-06	367.35	0.9624	65.242
2.4297e-06	372.65	0.95866	68.988
2.4297e-06	377.96	0.95479	72.814
2.4297e-06	383.27	0.95079	76.732
2.4297e-06	388.57	0.94667	80.751
2.4297e-06	393.88	0.94242	84.88
2.4297e-06	399.18	0.93804	89.131
2.4297e-06	404.49	0.93355	93.514
2.4297e-06	409.8	0.92893	98.041
2.4297e-06	415.1	0.92418	102.73
2.4297e-06	420.41	0.91931	107.58
2.4297e-06	425.71	0.91431	112.62
2.4297e-06	431.02	0.90918	117.87
2.4297e-06	436.33	0.90391	123.33
2.4297e-06	441.63	0.89852	129.03
2.4297e-06	446.94	0.89299	134.99
2.4297e-06	452.24	0.88731	141.24
2.4297e-06	457.55	0.88149	147.79
2.4297e-06	462.86	0.87551	154.69
2.4297e-06	468.16	0.86938	161.96
2.4297e-06	473.47	0.86308	169.64
2.4297e-06	478.78	0.85661	177.77
2.4297e-06	484.08	0.84996	186.4
2.4297e-06	489.39	0.84312	195.61
2.4297e-06	494.69	0.83607	205.42
2.4297e-06	500	0.8288	215.87
2.8172e-06	240	0.97881	-83.611
2.8172e-06	245.31	0.98651	-61.767
2.8172e-06	250.61	0.99167	-44.649
2.8172e-06	255.92	0.99515	-31.34
2.8172e-06	261.22	0.99746	-21.07
2.8172e-06	266.53	0.99891	-12.847
2.8172e-06	271.84	0.99969	-5.963
2.8172e-06	277.14	0.99993	-0.0057838
2.8172e-06	282.45	0.99971	5.2688
2.8172e-06	287.76	0.99912	10.04
2.8172e-06	293.06	0.99818	14.442
2.8172e-06	298.37	0.99695	18.555
2.8172e-06	303.67	0.99545	22.473
2.8172e-06	308.98	0.9937	26.231
2.8172e-06	314.29	0.99173	29.879
2.8172e-06	319.59	0.98956	33.446
2.8172e-06	324.9	0.98719	36.96
2.8172e-06	330.2	0.98464	40.442
2.8172e-06	335.51	0.98192	43.912
2.8172e-06	340.82	0.97904	47.385
2.8172e-06	346.12	0.976	50.874
2.8172e-06	351.43	0.97281	54.394
2.8172e-06	356.73	0.96948	57.955
2.8172e-06	362.04	0.96601	61.567
2.8172e-06	367.35	0.9624	65.242
2.8172e-06	372.65	0.95866	68.987
2.8172e-06	377.96	0.95479	72.814
2.8172e-06	383.27	0.95079	76.732
2.8172e-06	388.57	0.94667	80.751
2.8172e-06	393.88	0.94242	84.88
2.8172e-06	399.18	0.93804	89.13
2.8172e-06	404.49	0.93355	93.514
2.8172e-06	409.8	0.92893	98.041
2.8172e-06	415.1	0.92418	102.73
2.8172e-06	420.41	0.91931	107.58
2.8172e-06	425.71	0.91431	112.62
2.8172e-06	431.02	0.90918	117.87
2.8172e-06	436.33	0.90392	123.33
2.8172e-06	441.63	0.89852	129.03
2.8172e-06	446.94	0.89299	134.99
2.8172e-06	452.24	0.88731	141.24
2.8172e-06	457.55	0.88149	147.79
2.8172e-06	462.86	0.87551	154.69
2.8172e-06	468.16	0.86938	161.96
2.8172e-06	473.47	0.86308	169.64
2.8172e-06	478.78	0.85661	177.76
2.8172e-06	484.08	0.84996	186.4
2.8172e-06	489.39	0.84312	195.61
2.8172e-06	494.69	0.83607	205.42
2.8172e-06	500	0.8288	215.87
3.2665e-06	240	0.97882	-83.611
3.2665e-06	245.31	0.98651	-61.766
3.2665e-06	250.61	0.99167	-44.649
3.2665e-06	255.92	0.99515	-31.34
3.2665e-06	261.22	0.99746	-21.07
3.2665e-06	266.53	0.99891	-12.847
3.2665e-06	271.84	0.99969	-5.9628
3.2665e-06	277.14	0.99993	-0.0056873
3.2665e-06	282.45	0.99971	5.2689
3.2665e-06	287.76	0.99912	10.04
3.2665e-06	293.06	0.99818	14.442
3.2665e-06	298.37	0.99695	18.555
3.2665e-06	303.67	0.99545	22.473
3.2665e-06	308.98	0.9937	26.231
3.2665e-06	314.29	0.99173	29.879
3.2665e-06	319.59	0.98956	33.446
3.2665e-06	324.9	0.98719	36.96
3.2665e-06	330.2	0.98464	40.442
3.2665e-06	335.51	0.98192	43.912
3.2665e-06	340.82	0.97904	47.385
3.2665e-06	346.12	0.976	50.874
3.2665e-06	351.43	0.97281	54.394
3.2665e-06	356.73	0.96948	57.955
3.2665e-06	362.04	0.96601	61.567
3.2665e-06	367.35	0.9624	65.242
3.2665e-06	372.65	0.95866	68.987
3.2665e-06	377.96	0.95479	72.814
3.2665e-06	383.27	0.95079	76.732
3.2665e-06	388.57	0.94667	80.75
3.2665e-06	393.88	0.94242	84.88
3.2665e-06	399.18	0.93805	89.13
3.2665e-06	404.49	0.93355	93.514
3.2665e-06	409.8	0.92893	98.041
3.2665e-06	415.1	0.92418	102.73
3.2665e-06	420.41	0.91931	107.58
3.2665e-06	425.71	0.91431	112.62
3.2665e-06	431.02	0.90918	117.87
3.2665e-06	436.33	0.90392	123.33
3.2665e-06	441.63	0.89852	129.03
3.2665e-06	446.94	0.89299	134.99
3.2665e-06	452.24	0.88731	141.24
3.2665e-06	457.55	0.88149	147.79
3.2665e-06	462.86	0.87551	154.69
3.2665e-06	468.16	0.86938	161.96
3.2665e-06	473.47	0.86308	169.64
3.2665e-06	478.78	0.85661	177.76
3.2665e-06	484.08	0.84996	186.4
3.2665e-06	489.39	0.84312	195.61
3.2665e-06	494.69	0.83607	205.42
3.2665e-06	500	0.8288	215.87
3.7874e-06	240	0.97882	-83.61
3.7874e-06	245.31	0.98651	-61.766
3.7874e-06	250.61	0.99167	-44.649
3.7874e-06	255.92	0.99515	-31.34
3.7874e-06	261.22	0.99746	-21.07
3.7874e-06	266.53	0.99891	-12.847
3.7874e-06	271.84	0.99969	-5.9627
3.7874e-06	277.14	0.99993	-0.0055753
3.7874e-06	282.45	0.99971	5.269
3.7874e-06	287.76	0.99912	10.04
3.7874e-06	293.06	0.99818	14.442
3.7874e-06	298.37	0.99695	18.555
3.7874e-06	303.67	0.99545	22.473
3.7874e-06	308.98	0.9937	26.231
3.7874e-06	314.29	0.99173	29.879
3.7874e-06	319.59	0.98956	33.446
3.7874e-06	324.9	0.98719	36.96
3.7874e-06	330.2	0.98464	40.442
3.7874e-06	335.51	0.98192	43.912
3.7874e-06	340.82	0.97904	47.384
3.7874e-06	346.12	0.976	50.874
3.7874e-06	351.43	0.97281	54.394
3.7874e-06	356.73	0.96948	57.955
3.7874e-06	362.04	0.96601	61.567
3.7874e-06	367.35	0.9624	65.242
3.7874e-06	372.65	0.95866	68.987
3.7874e-06	377.96	0.95479	72.814
3.7874e-06	383.27	0.95079	76.732
3.7874e-06	388.57	0.94667	80.75
3.7874e-06	393.88	0.94242	84.88
3.7874e-06	399.18	0.93805	89.13
3.7874e-06	404.49	0.93355	93.513
3.7874e-06	409.8	0.92893	98.041
3.7874e-06	415.1	0.92418	102.73
3.7874e-06	420.41	0.91931	107.58
3.7874e-06	425.71	0.91431	112.62
3.7874e-06	431.02	0.90918	117.87
3.7874e-06	436.33	0.90392	123.33
3.7874e-06	441.63	0.89852	129.03
3.7874e-06	446.94	0.89299	134.99
3.7874e-06	452.24	0.88731	141.24
3.7874e-06	457.55	0.88149	147.79
3.7874e-06	462.86	0.87551	154.69
3.7874e-06	468.16	0.86938	161.96
3.7874e-06	473.47	0.86308	169.64
3.7874e-06	478.78	0.85661	177.76
3.7874e-06	484.08	0.84996	186.4
3.7874e-06	489.39	0.84312	195.61
3.7874e-06	494.69	0.83607	205.42
3.7874e-06	500	0.8288	215.87
4.3914e-06	240	0.97882	-83.61
4.3914e-06	245.31	0.98651	-61.765
4.3914e-06	250.61	0.99167	-44.648
4.3914e-06	255.92	0.99515	-31.339
4.3914e-06	261.22	0.99746	-21.07
4.3914e-06	266.53	0.99891	-12.847
4.3914e-06	271.84	0.99969	-5.9625
4.3914e-06	277.14	0.99993	-0.0054455
4.3914e-06	282.45	0.99971	5.2691
4.3914e-06	287.76	0.99912	10.04
4.3914e-06	293.06	0.99818	14.442
4.3914e-06	298.37	0.99695	18.555
4.3914e-06	303.67	0.99545	22.473
4.3914e-06	308.98	0.9937	26.231
4.3914e-06	314.29	0.99173	29.879
4.3914e-06	319.59	0.98956	33.446
4.3914e-06	324.9	0.98719	36.96
4.3914e-06	330.2	0.98464	40.442
4.3914e-06	335.51	0.98192	43.912
4.3914e-06	340.82	0.97904	47.384
4.3914e-06	346.12	0.976	50.874
4.3914e-06	351.43	0.97281	54.394
4.3914e-06	356.73	0.96948	57.955
4.3914e-06	362.04	0.96601	61.567
4.3914e-06	367.35	0.9624	65.241
4.3914e-06	372.65	0.95866	68.987
4.3914e-06	377.96	0.95479	72.814
4.3914e-06	383.27	0.95079	76.732
4.3914e-06	388.57	0.94667	80.75
4.3914e-06	393.88	0.94242	84.879
4.3914e-06	399.18	0.93805	89.13
4.3914e-06	404.49	0.93355	93.513
4.3914e-06	409.8	0.92893	98.041
4.3914e-06	415.1	0.92418	102.73
4.3914e-06	420.41	0.91931	107.58
4.3914e-06	425.71	0.91431	112.62
4.3914e-06	431.02	0.90918	117.87
4.3914e-06	436.33	0.90392	123.33
4.3914e-06	441.63	0.89852	129.03
4.3914e-06	446.94	0.89299	134.99
4.3914e-06	452.24	0.88731	141.24
4.3914e-06	457.55	0.88149	147.79
4.3914e-06	462.86	0.87551	154.69
4.3914e-06	468.16	0.86938	161.96
4.3914e-06	473.47	0.86308	169.64
4.3914e-06	478.78	0.85661	177.76
4.3914e-06	484.08	0.84996	186.4
4.3914e-06	489.39	0.84312	195.6
4.3914e-06	494.69	0.83607	205.42
4.3914e-06	500	0.8288	215.87
5.0917e-06	240	0.97882	-83.609
5.0917e-06	245.31	0.98651	-61.765
5.0917e-06	250.61	0.99167	-44.648
5.0917e-06	255.92	0.99515	-31.339
5.0917e-06	261.22	0.99746	-21.069
5.0917e-06	266.53	0.99891	-12.847
5.0917e-06	271.84	0.99969	-5.9624
5.0917e-06	277.14	0.99993	-0.005295
5.0917e-06	282.45	0.99971	5.2692
5.0917e-06	287.76	0.99912	10.04
5.0917e-06	293.06	0.99818	14.442
5.0917e-06	298.37	0.99695	18.556
5.0917e-06	303.67	0.99545	22.474
5.0917e-06	308.98	0.9937	26.231
5.0917e-06	314.29	0.99173	29.879
5.0917e-06	319.59	0.98956	33.446
5.0917e-06	324.9	0.98719	36.96
5.0917e-06	330.2	0.98464	40.442
5.0917e-06	335.51	0.98192	43.911
5.0917e-06	340.82	0.97904	47.384
5.0917e-06	346.12	0.976	50.874
5.0917e-06	351.43	0.97281	54.394
5.0917e-06	356.73	0.96948	57.955
5.0917e-06	362.04	0.96601	61.567
5.0917e-06	367.35	0.9624	65.241
5.0917e-06	372.65	0.95866	68.987
5.0917e-06	377.96	0.95479	72.814
5.0917e-06	383.27	0.95079	76.732
5.0917e-06	388.57	0.94667	80.75
5.0917e-06	393.88	0.94242	84.879
5.0917e-06	399.18	0.93805	89.13
5.0917e-06	404.49	0.93355	93.513
5.0917e-06	409.8	0.92893	98.041
5.0917e-06	415.1	0.92418	102.73
5.0917e-06	420.41	0.91931	107.58
5.0917e-06	425.71	0.91431	112.62
5.0917e-06	431.02	0.90918	117.87
5.0917e-06	436.33	0.90392	123.33
5.0917e-06	441.63	0.89852	129.03
5.0917e-06	446.94	0.89299	134.99
5.0917e-06	452.24	0.88731	141.24
5.0917e-06	457.55	0.88149	147.79
5.0917e-06	462.86	0.87551	154.69
5.0917e-06	468.16	0.86938	161.96
5.0917e-06	473.47	0.86308	169.64
5.0917e-06	478.78	0.85661	177.76
5.0917e-06	484.08	0.84996	186.4
5.0917e-06	489.39	0.84312	195.6
5.0917e-06	494.69	0.83607	205.42
5.0917e-06	500	0.82881	215.87
5.9036e-06	240	0.97882	-83.608
5.9036e-06	245.31	0.98651	-61.764
5.9036e-06	250.61	0.99167	-44.647
5.9036e-06	255.92	0.99515	-31.339
5.9036e-06	261.22	0.99746	-21.069
5.9036e-06	266.53	0.99891	-12.846
5.9036e-06	271.84	0.99969	-5.9621
5.9036e-06	277.14	0.99993	-0.0051205
5.9036e-06	282.45	0.99971	5.2694
5.9036e-06	287.76	0.99912	10.04
5.9036e-06	293.06	0.99818	14.442
5.9036e-06	298.37	0.99695	18.556
5.9036e-06	303.67	0.99545	22.474
5.9036e-06	308.98	0.9937	26.231
5.9036e-06	314.29	0.99174	29.879
5.9036e-06	319.59	0.98956	33.446
5.9036e-06	324.9	0.98719	36.96
5.9036e-06	330.2	0.98464	40.442
5.9036e-06	335.51	0.98192	43.911
5.9036e-06	340.82	0.97904	47.384
5.9036e-06	346.12	0.976	50.874
5.9036e-06	351.43	0.97281	54.394
5.9036e-06	356.73	0.96948	57.955
5.9036e-06	362.04	0.96601	61.567
5.9036e-06	367.35	0.9624	65.241
5.9036e-06	372.65	0.95866	68.987
5.9036e-06	377.96	0.95479	72.814
5.9036e-06	383.27	0.95079	76.732
5.9036e-06	388.57	0.94667	80.75
5.9036e-06	393.88	0.94242	84.879
5.9036e-06	399.18	0.93805	89.13
5.9036e-06	404.49	0.93355	93.513
5.9036e-06	409.8	0.92893	98.04
5.9036e-06	415.1	0.92418	102.73
5.9036e-06	420.41	0.91931	107.58
5.9036e-06	425.71	0.91431	112.62
5.9036e-06	431.02	0.90918	117.87
5.9036e-06	436.33	0.90392	123.33
5.9036e-06	441.63	0.89852	129.03
5.9036e-06	446.94	0.89299	134.99
5.9036e-06	452.24	0.88731	141.24
5.9036e-06	457.55	0.88149	147.79
5.9036e-06	462.86	0.87552	154.69
5.9036e-06	468.16	0.86938	161.96
5.9036e-06	473.47	0.86308	169.64
5.9036e-06	478.78	0.85661	177.76
5.9036e-06	484.08	0.84996	186.4
5.9036e-06	489.39	0.84312	195.6
5.9036e-06	494.69	0.83607	205.41
5.9036e-06	500	0.82881	215.87
6.8451e-06	240	0.97882	-83.607
6.8451e-06	245.31	0.98651	-61.763
6.8451e-06	250.61	0.99167	-44.647
6.8451e-06	255.92	0.99515	-31.338
6.8451e-06	261.22	0.99746	-21.069
6.8451e-06	266.53	0.99891	-12.846
6.8451e-06	271.84	0.99969	-5.9619
6.8451e-06	277.14	0.99993	-0.0049181
6.8451e-06	282.45	0.99972	5.2695
6.8451e-06	287.76	0.99912	10.04
6.8451e-06	293.06	0.99818	14.442
6.8451e-06	298.37	0.99695	18.556
6.8451e-06	303.67	0.99545	22.474
6.8451e-06	308.98	0.9937	26.231
6.8451e-06	314.29	0.99174	29.879
6.8451e-06	319.59	0.98956	33.446
6.8451e-06	324.9	0.98719	36.96
6.8451e-06	330.2	0.98464	40.442
6.8451e-06	335.51	0.98192	43.911
6.8451e-06	340.82	0.97904	47.384
6.8451e-06	346.12	0.976	50.874
6.8451e-06	351.43	0.97281	54.394
6.8451e-06	356.73	0.96948	57.955
6.8451e-06	362.04	0.96601	61.567
6.8451e-06	367.35	0.9624	65.241
6.8451e-06	372.65	0.95866	68.987
6.8451e-06	377.96	0.95479	72.814
6.8451e-06	383.27	0.95079	76.731
6.8451e-06	388.57	0.94667	80.75
6.8451e-06	393.88	0.94242	84.879
6.8451e-06	399.18	0.93805	89.129
6.8451e-06	404.49	0.93355	93.513
6.8451e-06	409.8	0.92893	98.04
6.8451e-06	415.1	0.92418	102.73
6.8451e-06	420.41	0.91931	107.58
6.8451e-06	425.71	0.91431	112.62
6.8451e-06	431.02	0.90918	117.87
6.8451e-06	436.33	0.90392	123.33
6.8451e-06	441.63	0.89852	129.03
6.8451e-06	446.94	0.89299	134.99
6.8451e-06	452.24	0.88731	141.24
6.8451e-06	457.55	0.88149	147.79
6.8451e-06	462.86	0.87552	154.69
6.8451e-06	468.16	0.86938	161.96
6.8451e-06	473.47	0.86309	169.63
6.8451e-06	478.78	0.85662	177.76
6.8451e-06	484.08	0.84996	186.4
6.8451e-06	489.39	0.84312	195.6
6.8451e-06	494.69	0.83607	205.41
6.8451e-06	500	0.82881	215.87
7.9367e-06	240	0.97882	-83.606
7.9367e-06	245.31	0.98651	-61.762
7.9367e-06	250.61	0.99167	-44.646
7.9367e-06	255.92	0.99515	-31.338
7.9367e-06	261.22	0.99746	-21.068
7.9367e-06	266.53	0.99891	-12.846
7.9367e-06	271.84	0.99969	-5.9616
7.9367e-06	277.14	0.99993	-0.0046835
7.9367e-06	282.45	0.99972	5.2697
7.9367e-06	287.76	0.99912	10.04
7.9367e-06	293.06	0.99818	14.442
7.9367e-06	298.37	0.99695	18.556
7.9367e-06	303.67	0.99545	22.474
7.9367e-06	308.98	0.9937	26.231
7.9367e-06	314.29	0.99174	29.879
7.9367e-06	319.59	0.98956	33.446
7.9367e-06	324.9	0.98719	36.96
7.9367e-06	330.2	0.98464	40.442
7.9367e-06	335.51	0.98192	43.911
7.9367e-06	340.82	0.97904	47.384
7.9367e-06	346.12	0.976	50.874
7.9367e-06	351.43	0.97281	54.394
7.9367e-06	356.73	0.96948	57.954
7.9367e-06	362.04	0.96601	61.567
7.9367e-06	367.35	0.9624	65.241
7.9367e-06	372.65	0.95866	68.987
7.9367e-06	377.96	0.95479	72.814
7.9367e-06	383.27	0.95079	76.731
7.9367e-06	388.57	0.94667	80.749
7.9367e-06	393.88	0.94242	84.879
7.9367e-06	399.18	0.93805	89.129
7.9367e-06	404.49	0.93355	93.512
7.9367e-06	409.8	0.92893	98.04
7.9367e-06	415.1	0.92418	102.72
7.9367e-06	420.41	0.91931	107.58
7.9367e-06	425.71	0.91431	112.62
7.9367e-06	431.02	0.90918	117.86
7.9367e-06	436.33	0.90392	123.33
7.9367e-06	441.63	0.89852	129.03
7.9367e-06	446.94	0.89299	134.99
7.9367e-06	452.24	0.88731	141.24
7.9367e-06	457.55	0.88149	147.79
7.9367e-06	462.86	0.87552	154.69
7.9367e-06	468.16	0.86938	161.96
7.9367e-06	473.47	0.86309	169.63
7.9367e-06	478.78	0.85662	177.76
7.9367e-06	484.08	0.84996	186.4
7.9367e-06	489.39	0.84312	195.6
7.9367e-06	494.69	0.83607	205.41
7.9367e-06	500	0.82881	215.86
9.2023e-06	240	0.97882	-83.604
9.2023e-06	245.31	0.98651	-61.761
9.2023e-06	250.61	0.99168	-44.645
9.2023e-06	255.92	0.99516	-31.337
9.2023e-06	261.22	0.99746	-21.068
9.2023e-06	266.53	0.99891	-12.845
9.2023e-06	271.84	0.99969	-5.9613
9.2023e-06	277.14	0.99993	-0.0044115
9.2023e-06	282.45	0.99972	5.2699
9.2023e-06	287.76	0.99912	10.041
9.2023e-06	293.06	0.99818	14.442
9.2023e-06	298.37	0.99695	18.556
9.2023e-06	303.67	0.99545	22.474
9.2023e-06	308.98	0.9937	26.231
9.2023e-06	314.29	0.99174	29.879
9.2023e-06	319.59	0.98956	33.446
9.2023e-06	324.9	0.98719	36.96
9.2023e-06	330.2	0.98465	40.442
9.2023e-06	335.51	0.98192	43.911
9.2023e-06	340.82	0.97904	47.384
9.2023e-06	346.12	0.976	50.874
9.2023e-06	351.43	0.97281	54.394
9.2023e-06	356.73	0.96948	57.954
9.2023e-06	362.04	0.96601	61.567
9.2023e-06	367.35	0.9624	65.241
9.2023e-06	372.65	0.95866	68.986
9.2023e-06	377.96	0.95479	72.813
9.2023e-06	383.27	0.95079	76.731
9.2023e-06	388.57	0.94667	80.749
9.2023e-06	393.88	0.94242	84.878
9.2023e-06	399.18	0.93805	89.129
9.2023e-06	404.49	0.93355	93.512
9.2023e-06	409.8	0.92893	98.039
9.2023e-06	415.1	0.92418	102.72
9.2023e-06	420.41	0.91931	107.58
9.2023e-06	425.71	0.91431	112.62
9.2023e-06	431.02	0.90918	117.86
9.2023e-06	436.33	0.90392	123.33
9.2023e-06	441.63	0.89852	129.03
9.2023e-06	446.94	0.89299	134.99
9.2023e-06	452.24	0.88731	141.24
9.2023e-06	457.55	0.88149	147.79
9.2023e-06	462.86	0.87552	154.69
9.2023e-06	468.16	0.86938	161.96
9.2023e-06	473.47	0.86309	169.63
9.2023e-06	478.78	0.85662	177.76
9.2023e-06	484.08	0.84997	186.4
9.2023e-06	489.39	0.84312	195.6
9.2023e-06	494.69	0.83607	205.41
9.2023e-06	500	0.82881	215.86
1.067e-05	240	0.97882	-83.603
1.067e-05	245.31	0.98651	-61.76
1.067e-05	250.61	0.99168	-44.644
1.067e-05	255.92	0.99516	-31.336
1.067e-05	261.22	0.99747	-21.067
1.067e-05	266.53	0.99891	-12.845
1.067e-05	271.84	0.99969	-5.9609
1.067e-05	277.14	0.99993	-0.0040961
1.067e-05	282.45	0.99972	5.2702
1.067e-05	287.76	0.99912	10.041
1.067e-05	293.06	0.99818	14.442
1.067e-05	298.37	0.99695	18.556
1.067e-05	303.67	0.99545	22.474
1.067e-05	308.98	0.99371	26.231
1.067e-05	314.29	0.99174	29.879
1.067e-05	319.59	0.98956	33.446
1.067e-05	324.9	0.98719	36.96
1.067e-05	330.2	0.98465	40.442
1.067e-05	335.51	0.98193	43.911
1.067e-05	340.82	0.97904	47.384
1.067e-05	346.12	0.976	50.874
1.067e-05	351.43	0.97282	54.394
1.067e-05	356.73	0.96948	57.954
1.067e-05	362.04	0.96601	61.567
1.067e-05	367.35	0.9624	65.241
1.067e-05	372.65	0.95866	68.986
1.067e-05	377.96	0.95479	72.813
1.067e-05	383.27	0.9508	76.731
1.067e-05	388.57	0.94667	80.749
1.067e-05	393.88	0.94242	84.878
1.067e-05	399.18	0.93805	89.128
1.067e-05	404.49	0.93355	93.511
1.067e-05	409.8	0.92893	98.039
1.067e-05	415.1	0.92418	102.72
1.067e-05	420.41	0.91931	107.58
1.067e-05	425.71	0.91431	112.62
1.067e-05	431.02	0.90918	117.86
1.067e-05	436.33	0.90392	123.33
1.067e-05	441.63	0.89852	129.03
1.067e-05	446.94	0.89299	134.99
1.067e-05	452.24	0.88732	141.23
1.067e-05	457.55	0.88149	147.79
1.067e-05	462.86	0.87552	154.69
1.067e-05	468.16	0.86939	161.96
1.067e-05	473.47	0.86309	169.63
1.067e-05	478.78	0.85662	177.76
1.067e-05	484.08	0.84997	186.39
1.067e-05	489.39	0.84312	195.6
1.067e-05	494.69	0.83607	205.41
1.067e-05	500	0.82881	215.86
1.2371e-05	240	0.97882	-83.601
1.2371e-05	245.31	0.98652	-61.758
1.2371e-05	250.61	0.99168	-44.643
1.2371e-05	255.92	0.99516	-31.335
1.2371e-05	261.22	0.99747	-21.066
1.2371e-05	266.53	0.99891	-12.844
1.2371e-05	271.84	0.99969	-5.9604
1.2371e-05	277.14	0.99993	-0.0037304
1.2371e-05	282.45	0.99972	5.2705
1.2371e-05	287.76	0.99912	10.041
1.2371e-05	293.06	0.99818	14.443
1.2371e-05	298.37	0.99695	18.556
1.2371e-05	303.67	0.99545	22.474
1.2371e-05	308.98	0.99371	26.231
1.2371e-05	314.29	0.99174	29.879
1.2371e-05	319.59	0.98956	33.446
1.2371e-05	324.9	0.9872	36.96
1.2371e-05	330.2	0.98465	40.442
1.2371e-05	335.51	0.98193	43.911
1.2371e-05	340.82	0.97904	47.384
1.2371e-05	346.12	0.976	50.874
1.2371e-05	351.43	0.97282	54.393
1.2371e-05	356.73	0.96948	57.954
1.2371e-05	362.04	0.96601	61.566
1.2371e-05	367.35	0.9624	65.24
1.2371e-05	372.65	0.95866	68.986
1.2371e-05	377.96	0.95479	72.813
1.2371e-05	383.27	0.9508	76.73
1.2371e-05	388.57	0.94667	80.749
1.2371e-05	393.88	0.94242	84.878
1.2371e-05	399.18	0.93805	89.128
1.2371e-05	404.49	0.93355	93.511
1.2371e-05	409.8	0.92893	98.038
1.2371e-05	415.1	0.92418	102.72
1.2371e-05	420.41	0.91931	107.58
1.2371e-05	425.71	0.91431	112.62
1.2371e-05	431.02	0.90918	117.86
1.2371e-05	436.33	0.90392	123.33
1.2371e-05	441.63	0.89853	129.03
1.2371e-05	446.94	0.89299	134.99
1.2371e-05	452.24	0.88732	141.23
1.2371e-05	457.55	0.88149	147.79
1.2371e-05	462.86	0.87552	154.68
1.2371e-05	468.16	0.86939	161.96
1.2371e-05	473.47	0.86309	169.63
1.2371e-05	478.78	0.85662	177.76
1.2371e-05	484.08	0.84997	186.39
1.2371e-05	489.39	0.84312	195.6
1.2371e-05	494.69	0.83608	205.41
1.2371e-05	500	0.82881	215.86
1.4344e-05	240	0.97883	-83.598
1.4344e-05	245.31	0.98652	-61.757
1.4344e-05	250.61	0.99168	-44.642
1.4344e-05	255.92	0.99516	-31.334
1.4344e-05	261.22	0.99747	-21.066
1.4344e-05	266.53	0.99891	-12.844
1.4344e-05	271.84	0.99969	-5.9599
1.4344e-05	277.14	0.99993	-0.0033064
1.4344e-05	282.45	0.99972	5.2708
1.4344e-05	287.76	0.99912	10.041
1.4344e-05	293.06	0.99819	14.443
1.4344e-05	298.37	0.99695	18.556
1.4344e-05	303.67	0.99545	22.474
1.4344e-05	308.98	0.99371	26.231
1.4344e-05	314.29	0.99174	29.879
1.4344e-05	319.59	0.98956	33.446
1.4344e-05	324.9	0.9872	36.959
1.4344e-05	330.2	0.98465	40.442
1.4344e-05	335.51	0.98193	43.911
1.4344e-05	340.82	0.97904	47.384
1.4344e-05	346.12	0.97601	50.874
1.4344e-05	351.43	0.97282	54.393
1.4344e-05	356.73	0.96948	57.954
1.4344e-05	362.04	0.96601	61.566
1.4344e-05	367.35	0.96241	65.24
1.4344e-05	372.65	0.95867	68.986
1.4344e-05	377.96	0.9548	72.812
1.4344e-05	383.27	0.9508	76.73
1.4344e-05	388.57	0.94667	80.748
1.4344e-05	393.88	0.94242	84.877
1.4344e-05	399.18	0.93805	89.127
1.4344e-05	404.49	0.93355	93.51
1.4344e-05	409.8	0.92893	98.038
1.4344e-05	415.1	0.92418	102.72
1.4344e-05	420.41	0.91931	107.58
1.4344e-05	425.71	0.91431	112.62
1.4344e-05	431.02	0.90918	117.86
1.4344e-05	436.33	0.90392	123.32
1.4344e-05	441.63	0.89853	129.02
1.4344e-05	446.94	0.89299	134.99
1.4344e-05	452.24	0.88732	141.23
1.4344e-05	457.55	0.8815	147.78
1.4344e-05	462.86	0.87552	154.68
1.4344e-05	468.16	0.86939	161.95
1.4344e-05	473.47	0.86309	169.63
1.4344e-05	478.78	0.85662	177.75
1.4344e-05	484.08	0.84997	186.39
1.4344e-05	489.39	0.84313	195.59
1.4344e-05	494.69	0.83608	205.4
1.4344e-05	500	0.82881	215.86
1.6632e-05	240	0.97883	-83.596
1.6632e-05	245.31	0.98652	-61.755
1.6632e-05	250.61	0.99168	-44.64
1.6632e-05	255.92	0.99516	-31.333
1.6632e-05	261.22	0.99747	-21.065
1.6632e-05	266.53	0.99892	-12.843
1.6632e-05	271.84	0.99969	-5.9593
1.6632e-05	277.14	0.99993	-0.0028148
1.6632e-05	282.45	0.99972	5.2712
1.6632e-05	287.76	0.99912	10.042
1.6632e-05	293.06	0.99819	14.443
1.6632e-05	298.37	0.99695	18.557
1.6632e-05	303.67	0.99545	22.474
1.6632e-05	308.98	0.99371	26.231
1.6632e-05	314.29	0.99174	29.879
1.6632e-05	319.59	0.98957	33.446
1.6632e-05	324.9	0.9872	36.959
1.6632e-05	330.2	0.98465	40.442
1.6632e-05	335.51	0.98193	43.911
1.6632e-05	340.82	0.97904	47.384
1.6632e-05	346.12	0.97601	50.873
1.6632e-05	351.43	0.97282	54.393
1.6632e-05	356.73	0.96949	57.954
1.6632e-05	362.04	0.96601	61.566
1.6632e-05	367.35	0.96241	65.24
1.6632e-05	372.65	0.95867	68.985
1.6632e-05	377.96	0.9548	72.812
1.6632e-05	383.27	0.9508	76.73
1.6632e-05	388.57	0.94667	80.748
1.6632e-05	393.88	0.94243	84.877
1.6632e-05	399.18	0.93805	89.127
1.6632e-05	404.49	0.93355	93.51
1.6632e-05	409.8	0.92893	98.037
1.6632e-05	415.1	0.92419	102.72
1.6632e-05	420.41	0.91931	107.58
1.6632e-05	425.71	0.91431	112.62
1.6632e-05	431.02	0.90918	117.86
1.6632e-05	436.33	0.90392	123.32
1.6632e-05	441.63	0.89853	129.02
1.6632e-05	446.94	0.89299	134.99
1.6632e-05	452.24	0.88732	141.23
1.6632e-05	457.55	0.8815	147.78
1.6632e-05	462.86	0.87552	154.68
1.6632e-05	468.16	0.86939	161.95
1.6632e-05	473.47	0.86309	169.63
1.6632e-05	478.78	0.85662	177.75
1.6632e-05	484.08	0.84997	186.39
1.6632e-05	489.39	0.84313	195.59
1.6632e-05	494.69	0.83608	205.4
1.6632e-05	500	0.82882	215.85
1.9284e-05	240	0.97883	-83.593
1.9284e-05	245.31	0.98652	-61.752
1.9284e-05	250.61	0.99168	-44.639
1.9284e-05	255.92	0.99516	-31.332
1.9284e-05	261.22	0.99747	-21.064
1.9284e-05	266.53	0.99892	-12.842
1.9284e-05	271.84	0.9997	-5.9586
1.9284e-05	277.14	0.99993	-0.0022448
1.9284e-05	282.45	0.99972	5.2717
1.9284e-05	287.76	0.99912	10.042
1.9284e-05	293.06	0.99819	14.443
1.9284e-05	298.37	0.99695	18.557
1.9284e-05	303.67	0.99545	22.474
1.9284e-05	308.98	0.99371	26.231
1.9284e-05	314.29	0.99174	29.879
1.9284e-05	319.59	0.98957	33.446
1.9284e-05	324.9	0.9872	36.959
1.9284e-05	330.2	0.98465	40.442
1.9284e-05	335.51	0.98193	43.911
1.9284e-05	340.82	0.97905	47.384
1.9284e-05	346.12	0.97601	50.873
1.9284e-05	351.43	0.97282	54.393
1.9284e-05	356.73	0.96949	57.953
1.9284e-05	362.04	0.96602	61.565
1.9284e-05	367.35	0.96241	65.239
1.9284e-05	372.65	0.95867	68.985
1.9284e-05	377.96	0.9548	72.812
1.9284e-05	383.27	0.9508	76.729
1.9284e-05	388.57	0.94668	80.747
1.9284e-05	393.88	0.94243	84.876
1.9284e-05	399.18	0.93805	89.126
1.9284e-05	404.49	0.93356	93.509
1.9284e-05	409.8	0.92893	98.036
1.9284e-05	415.1	0.92419	102.72
1.9284e-05	420.41	0.91932	107.58
1.9284e-05	425.71	0.91432	112.62
1.9284e-05	431.02	0.90919	117.86
1.9284e-05	436.33	0.90393	123.32
1.9284e-05	441.63	0.89853	129.02
1.9284e-05	446.94	0.893	134.98
1.9284e-05	452.24	0.88732	141.23
1.9284e-05	457.55	0.8815	147.78
1.9284e-05	462.86	0.87552	154.68
1.9284e-05	468.16	0.86939	161.95
1.9284e-05	473.47	0.8631	169.62
1.9284e-05	478.78	0.85663	177.75
1.9284e-05	484.08	0.84997	186.39
1.9284e-05	489.39	0.84313	195.59
1.9284e-05	494.69	0.83608	205.4
1.9284e-05	500	0.82882	215.85
2.2359e-05	240	0.97883	-83.589
2.2359e-05	245.31	0.98652	-61.75
2.2359e-05	250.61	0.99168	-44.637
2.2359e-05	255.92	0.99516	-31.33
2.2359e-05	261.22	0.99747	-21.062
2.2359e-05	266.53	0.99892	-12.841
2.2359e-05	271.84	0.9997	-5.9578
2.2359e-05	277.14	0.99994	-0.0015839
2.2359e-05	282.45	0.99972	5.2722
2.2359e-05	287.76	0.99912	10.042
2.2359e-05	293.06	0.99819	14.444
2.2359e-05	298.37	0.99696	18.557
2.2359e-05	303.67	0.99545	22.475
2.2359e-05	308.98	0.99371	26.231
2.2359e-05	314.29	0.99174	29.879
2.2359e-05	319.59	0.98957	33.446
2.2359e-05	324.9	0.9872	36.959
2.2359e-05	330.2	0.98465	40.442
2.2359e-05	335.51	0.98193	43.911
2.2359e-05	340.82	0.97905	47.383
2.2359e-05	346.12	0.97601	50.873
2.2359e-05	351.43	0.97282	54.392
2.2359e-05	356.73	0.96949	57.953
2.2359e-05	362.04	0.96602	61.565
2.2359e-05	367.35	0.96241	65.239
2.2359e-05	372.65	0.95867	68.984
2.2359e-05	377.96	0.9548	72.811
2.2359e-05	383.27	0.9508	76.728
2.2359e-05	388.57	0.94668	80.746
2.2359e-05	393.88	0.94243	84.875
2.2359e-05	399.18	0.93805	89.125
2.2359e-05	404.49	0.93356	93.508
2.2359e-05	409.8	0.92894	98.035
2.2359e-05	415.1	0.92419	102.72
2.2359e-05	420.41	0.91932	107.57
2.2359e-05	425.71	0.91432	112.62
2.2359e-05	431.02	0.90919	117.86
2.2359e-05	436.33	0.90393	123.32
2.2359e-05	441.63	0.89853	129.02
2.2359e-05	446.94	0.893	134.98
2.2359e-05	452.24	0.88732	141.23
2.2359e-05	457.55	0.8815	147.78
2.2359e-05	462.86	0.87553	154.68
2.2359e-05	468.16	0.86939	161.95
2.2359e-05	473.47	0.8631	169.62
2.2359e-05	478.78	0.85663	177.75
2.2359e-05	484.08	0.84998	186.38
2.2359e-05	489.39	0.84313	195.58
2.2359e-05	494.69	0.83609	205.39
2.2359e-05	500	0.82882	215.84
2.5925e-05	240	0.97884	-83.585
2.5925e-05	245.31	0.98653	-61.746
2.5925e-05	250.61	0.99169	-44.634
2.5925e-05	255.92	0.99517	-31.328
2.5925e-05	261.22	0.99747	-21.061
2.5925e-05	266.53	0.99892	-12.84
2.5925e-05	271.84	0.9997	-5.9568
2.5925e-05	277.14	0.99994	-0.00081764
2.5925e-05	282.45	0.99972	5.2728
2.5925e-05	287.76	0.99913	10.043
2.5925e-05	293.06	0.99819	14.444
2.5925e-05	298.37	0.99696	18.557
2.5925e-05	303.67	0.99546	22.475
2.5925e-05	308.98	0.99371	26.232
2.5925e-05	314.29	0.99174	29.88
2.5925e-05	319.59	0.98957	33.446
2.5925e-05	324.9	0.9872	36.959
2.5925e-05	330.2	0.98465	40.442
2.5925e-05	335.51	0.98193	43.911
2.5925e-05	340.82	0.97905	47.383
2.5925e-05	346.12	0.97601	50.873
2.5925e-05	351.43	0.97282	54.392
2.5925e-05	356.73	0.96949	57.953
2.5925e-05	362.04	0.96602	61.565
2.5925e-05	367.35	0.96241	65.239
2.5925e-05	372.65	0.95867	68.984
2.5925e-05	377.96	0.9548	72.81
2.5925e-05	383.27	0.9508	76.728
2.5925e-05	388.57	0.94668	80.746
2.5925e-05	393.88	0.94243	84.874
2.5925e-05	399.18	0.93806	89.124
2.5925e-05	404.49	0.93356	93.507
2.5925e-05	409.8	0.92894	98.034
2.5925e-05	415.1	0.92419	102.72
2.5925e-05	420.41	0.91932	107.57
2.5925e-05	425.71	0.91432	112.61
2.5925e-05	431.02	0.90919	117.86
2.5925e-05	436.33	0.90393	123.32
2.5925e-05	441.63	0.89853	129.02
2.5925e-05	446.94	0.893	134.98
2.5925e-05	452.24	0.88733	141.22
2.5925e-05	457.55	0.8815	147.78
2.5925e-05	462.86	0.87553	154.67
2.5925e-05	468.16	0.8694	161.95
2.5925e-05	473.47	0.8631	169.62
2.5925e-05	478.78	0.85663	177.74
2.5925e-05	484.08	0.84998	186.38
2.5925e-05	489.39	0.84314	195.58
2.5925e-05	494.69	0.83609	205.39
2.5925e-05	500	0.82883	215.84
3.0059e-05	240	0.97884	-83.581
3.0059e-05	245.31	0.98653	-61.743
3.0059e-05	250.61	0.99169	-44.632
3.0059e-05	255.92	0.99517	-31.326
3.0059e-05	261.22	0.99748	-21.059
3.0059e-05	266.53	0.99892	-12.838
3.0059e-05	271.84	0.9997	-5.9557
3.0059e-05	277.14	0.99994	7.0806e-05
3.0059e-05	282.45	0.99973	5.2736
3.0059e-05	287.76	0.99913	10.043
3.0059e-05	293.06	0.99819	14.445
3.0059e-05	298.37	0.99696	18.558
3.0059e-05	303.67	0.99546	22.475
3.0059e-05	308.98	0.99371	26.232
3.0059e-05	314.29	0.99175	29.88
3.0059e-05	319.59	0.98957	33.446
3.0059e-05	324.9	0.9872	36.959
3.0059e-05	330.2	0.98465	40.442
3.0059e-05	335.51	0.98193	43.91
3.0059e-05	340.82	0.97905	47.383
3.0059e-05	346.12	0.97601	50.872
3.0059e-05	351.43	0.97282	54.392
3.0059e-05	356.73	0.96949	57.952
3.0059e-05	362.04	0.96602	61.564
3.0059e-05	367.35	0.96241	65.238
3.0059e-05	372.65	0.95867	68.983
3.0059e-05	377.96	0.9548	72.81
3.0059e-05	383.27	0.9508	76.727
3.0059e-05	388.57	0.94668	80.745
3.0059e-05	393.88	0.94243	84.873
3.0059e-05	399.18	0.93806	89.123
3.0059e-05	404.49	0.93356	93.506
3.0059e-05	409.8	0.92894	98.033
3.0059e-05	415.1	0.92419	102.72
3.0059e-05	420.41	0.91932	107.57
3.0059e-05	425.71	0.91432	112.61
3.0059e-05	431.02	0.90919	117.86
3.0059e-05	436.33	0.90393	123.32
3.0059e-05	441.63	0.89854	129.02
3.0059e-05	446.94	0.893	134.98
3.0059e-05	452.24	0.88733	141.22
3.0059e-05	457.55	0.88151	147.77
3.0059e-05	462.86	0.87553	154.67
3.0059e-05	468.16	0.8694	161.94
3.0059e-05	473.47	0.8631	169.61
3.0059e-05	478.78	0.85663	177.74
3.0059e-05	484.08	0.84998	186.37
3.0059e-05	489.39	0.84314	195.57
3.0059e-05	494.69	0.83609	205.38
3.0059e-05	500	0.82883	215.83
3.4853e-05	240	0.97884	-83.575
3.4853e-05	245.31	0.98653	-61.739
3.4853e-05	250.61	0.99169	-44.629
3.4853e-05	255.92	0.99517	-31.324
3.4853e-05	261.22	0.99748	-21.057
3.4853e-05	266.53	0.99893	-12.837
3.4853e-05	271.84	0.9997	-5.9544
3.4853e-05	277.14	0.99994	0.0011009
3.4853e-05	282.45	0.99973	5.2744
3.4853e-05	287.76	0.99913	10.044
3.4853e-05	293.06	0.99819	14.445
3.4853e-05	298.37	0.99696	18.558
3.4853e-05	303.67	0.99546	22.475
3.4853e-05	308.98	0.99372	26.232
3.4853e-05	314.29	0.99175	29.88
3.4853e-05	319.59	0.98957	33.446
3.4853e-05	324.9	0.98721	36.959
3.4853e-05	330.2	0.98466	40.441
3.4853e-05	335.51	0.98194	43.91
3.4853e-05	340.82	0.97905	47.383
3.4853e-05	346.12	0.97601	50.872
3.4853e-05	351.43	0.97283	54.391
3.4853e-05	356.73	0.96949	57.952
3.4853e-05	362.04	0.96602	61.564
3.4853e-05	367.35	0.96241	65.237
3.4853e-05	372.65	0.95867	68.983
3.4853e-05	377.96	0.9548	72.809
3.4853e-05	383.27	0.95081	76.726
3.4853e-05	388.57	0.94668	80.744
3.4853e-05	393.88	0.94243	84.872
3.4853e-05	399.18	0.93806	89.122
3.4853e-05	404.49	0.93356	93.505
3.4853e-05	409.8	0.92894	98.032
3.4853e-05	415.1	0.9242	102.72
3.4853e-05	420.41	0.91932	107.57
3.4853e-05	425.71	0.91432	112.61
3.4853e-05	431.02	0.9092	117.85
3.4853e-05	436.33	0.90393	123.31
3.4853e-05	441.63	0.89854	129.01
3.4853e-05	446.94	0.89301	134.98
3.4853e-05	452.24	0.88733	141.22
3.4853e-05	457.55	0.88151	147.77
3.4853e-05	462.86	0.87554	154.67
3.4853e-05	468.16	0.8694	161.94
3.4853e-05	473.47	0.86311	169.61
3.4853e-05	478.78	0.85664	177.73
3.4853e-05	484.08	0.84999	186.37
3.4853e-05	489.39	0.84314	195.57
3.4853e-05	494.69	0.8361	205.38
3.4853e-05	500	0.82883	215.83
4.0411e-05	240	0.97885	-83.569
4.0411e-05	245.31	0.98654	-61.734
4.0411e-05	250.61	0.9917	-44.625
4.0411e-05	255.92	0.99517	-31.321
4.0411e-05	261.22	0.99748	-21.055
4.0411e-05	266.53	0.99893	-12.835
4.0411e-05	271.84	0.99971	-5.953
4.0411e-05	277.14	0.99994	0.0022952
4.0411e-05	282.45	0.99973	5.2754
4.0411e-05	287.76	0.99913	10.045
4.0411e-05	293.06	0.9982	14.446
4.0411e-05	298.37	0.99696	18.558
4.0411e-05	303.67	0.99546	22.476
4.0411e-05	308.98	0.99372	26.232
4.0411e-05	314.29	0.99175	29.88
4.0411e-05	319.59	0.98958	33.446
4.0411e-05	324.9	0.98721	36.959
4.0411e-05	330.2	0.98466	40.441
4.0411e-05	335.51	0.98194	43.91
4.0411e-05	340.82	0.97906	47.382
4.0411e-05	346.12	0.97602	50.872
4.0411e-05	351.43	0.97283	54.391
4.0411e-05	356.73	0.9695	57.951
4.0411e-05	362.04	0.96602	61.563
4.0411e-05	367.35	0.96242	65.237
4.0411e-05	372.65	0.95868	68.982
4.0411e-05	377.96	0.95481	72.808
4.0411e-05	383.27	0.95081	76.725
4.0411e-05	388.57	0.94669	80.743
4.0411e-05	393.88	0.94244	84.871
4.0411e-05	399.18	0.93806	89.121
4.0411e-05	404.49	0.93357	93.503
4.0411e-05	409.8	0.92895	98.03
4.0411e-05	415.1	0.9242	102.71
4.0411e-05	420.41	0.91933	107.57
4.0411e-05	425.71	0.91433	112.61
4.0411e-05	431.02	0.9092	117.85
4.0411e-05	436.33	0.90394	123.31
4.0411e-05	441.63	0.89854	129.01
4.0411e-05	446.94	0.89301	134.97
4.0411e-05	452.24	0.88733	141.22
4.0411e-05	457.55	0.88151	147.77
4.0411e-05	462.86	0.87554	154.66
4.0411e-05	468.16	0.86941	161.93
4.0411e-05	473.47	0.86311	169.61
4.0411e-05	478.78	0.85664	177.73
4.0411e-05	484.08	0.84999	186.36
4.0411e-05	489.39	0.84315	195.56
4.0411e-05	494.69	0.8361	205.37
4.0411e-05	500	0.82884	215.82
4.6855e-05	240	0.97885	-83.562
4.6855e-05	245.31	0.98654	-61.728
4.6855e-05	250.61	0.9917	-44.621
4.6855e-05	255.92	0.99518	-31.318
4.6855e-05	261.22	0.99749	-21.053
4.6855e-05	266.53	0.99893	-12.833
4.6855e-05	271.84	0.99971	-5.9512
4.6855e-05	277.14	0.99995	0.00368
4.6855e-05	282.45	0.99973	5.2765
4.6855e-05	287.76	0.99914	10.046
4.6855e-05	293.06	0.9982	14.446
4.6855e-05	298.37	0.99697	18.559
4.6855e-05	303.67	0.99547	22.476
4.6855e-05	308.98	0.99372	26.232
4.6855e-05	314.29	0.99175	29.88
4.6855e-05	319.59	0.98958	33.446
4.6855e-05	324.9	0.98721	36.959
4.6855e-05	330.2	0.98466	40.441
4.6855e-05	335.51	0.98194	43.91
4.6855e-05	340.82	0.97906	47.382
4.6855e-05	346.12	0.97602	50.871
4.6855e-05	351.43	0.97283	54.39
4.6855e-05	356.73	0.9695	57.95
4.6855e-05	362.04	0.96603	61.562
4.6855e-05	367.35	0.96242	65.236
4.6855e-05	372.65	0.95868	68.981
4.6855e-05	377.96	0.95481	72.807
4.6855e-05	383.27	0.95081	76.724
4.6855e-05	388.57	0.94669	80.741
4.6855e-05	393.88	0.94244	84.869
4.6855e-05	399.18	0.93807	89.119
4.6855e-05	404.49	0.93357	93.501
4.6855e-05	409.8	0.92895	98.028
4.6855e-05	415.1	0.9242	102.71
4.6855e-05	420.41	0.91933	107.57
4.6855e-05	425.71	0.91433	112.61
4.6855e-05	431.02	0.9092	117.85
4.6855e-05	436.33	0.90394	123.31
4.6855e-05	441.63	0.89855	129.01
4.6855e-05	446.94	0.89301	134.97
4.6855e-05	452.24	0.88734	141.21
4.6855e-05	457.55	0.88152	147.76
4.6855e-05	462.86	0.87554	154.66
4.6855e-05	468.16	0.86941	161.93
4.6855e-05	473.47	0.86312	169.6
4.6855e-05	478.78	0.85665	177.72
4.6855e-05	484.08	0.85	186.36
4.6855e-05	489.39	0.84315	195.55
4.6855e-05	494.69	0.83611	205.36
4.6855e-05	500	0.82885	215.81
5.4327e-05	240	0.97886	-83.554
5.4327e-05	245.31	0.98655	-61.722
5.4327e-05	250.61	0.99171	-44.616
5.4327e-05	255.92	0.99518	-31.314
5.4327e-05	261.22	0.99749	-21.05
5.4327e-05	266.53	0.99894	-12.83
5.4327e-05	271.84	0.99971	-5.9492
5.4327e-05	277.14	0.99995	0.0052854
5.4327e-05	282.45	0.99974	5.2778
5.4327e-05	287.76	0.99914	10.047
5.4327e-05	293.06	0.9982	14.447
5.4327e-05	298.37	0.99697	18.56
5.4327e-05	303.67	0.99547	22.477
5.4327e-05	308.98	0.99372	26.233
5.4327e-05	314.29	0.99176	29.88
5.4327e-05	319.59	0.98958	33.446
5.4327e-05	324.9	0.98721	36.959
5.4327e-05	330.2	0.98466	40.441
5.4327e-05	335.51	0.98194	43.909
5.4327e-05	340.82	0.97906	47.381
5.4327e-05	346.12	0.97602	50.871
5.4327e-05	351.43	0.97283	54.39
5.4327e-05	356.73	0.9695	57.95
5.4327e-05	362.04	0.96603	61.561
5.4327e-05	367.35	0.96242	65.235
5.4327e-05	372.65	0.95868	68.979
5.4327e-05	377.96	0.95481	72.805
5.4327e-05	383.27	0.95082	76.722
5.4327e-05	388.57	0.94669	80.74
5.4327e-05	393.88	0.94244	84.868
5.4327e-05	399.18	0.93807	89.117
5.4327e-05	404.49	0.93357	93.499
5.4327e-05	409.8	0.92895	98.026
5.4327e-05	415.1	0.92421	102.71
5.4327e-05	420.41	0.91933	107.56
5.4327e-05	425.71	0.91434	112.6
5.4327e-05	431.02	0.90921	117.84
5.4327e-05	436.33	0.90395	123.31
5.4327e-05	441.63	0.89855	129
5.4327e-05	446.94	0.89302	134.96
5.4327e-05	452.24	0.88734	141.21
5.4327e-05	457.55	0.88152	147.76
5.4327e-05	462.86	0.87555	154.65
5.4327e-05	468.16	0.86942	161.92
5.4327e-05	473.47	0.86312	169.59
5.4327e-05	478.78	0.85665	177.71
5.4327e-05	484.08	0.85	186.35
5.4327e-05	489.39	0.84316	195.55
5.4327e-05	494.69	0.83611	205.35
5.4327e-05	500	0.82885	215.8
6.2991e-05	240	0.97887	-83.544
6.2991e-05	245.31	0.98655	-61.714
6.2991e-05	250.61	0.99171	-44.611
6.2991e-05	255.92	0.99519	-31.309
6.2991e-05	261.22	0.9975	-21.046
6.2991e-05	266.53	0.99894	-12.828
6.2991e-05	271.84	0.99972	-5.9469
6.2991e-05	277.14	0.99996	0.0071469
6.2991e-05	282.45	0.99974	5.2793
6.2991e-05	287.76	0.99914	10.048
6.2991e-05	293.06	0.99821	14.448
6.2991e-05	298.37	0.99697	18.56
6.2991e-05	303.67	0.99547	22.477
6.2991e-05	308.98	0.99373	26.233
6.2991e-05	314.29	0.99176	29.88
6.2991e-05	319.59	0.98959	33.446
6.2991e-05	324.9	0.98722	36.959
6.2991e-05	330.2	0.98467	40.441
6.2991e-05	335.51	0.98195	43.909
6.2991e-05	340.82	0.97907	47.381
6.2991e-05	346.12	0.97603	50.87
6.2991e-05	351.43	0.97284	54.389
6.2991e-05	356.73	0.96951	57.949
6.2991e-05	362.04	0.96603	61.56
6.2991e-05	367.35	0.96243	65.233
6.2991e-05	372.65	0.95869	68.978
6.2991e-05	377.96	0.95482	72.804
6.2991e-05	383.27	0.95082	76.721
6.2991e-05	388.57	0.9467	80.738
6.2991e-05	393.88	0.94245	84.866
6.2991e-05	399.18	0.93808	89.115
6.2991e-05	404.49	0.93358	93.497
6.2991e-05	409.8	0.92896	98.023
6.2991e-05	415.1	0.92421	102.71
6.2991e-05	420.41	0.91934	107.56
6.2991e-05	425.71	0.91434	112.6
6.2991e-05	431.02	0.90921	117.84
6.2991e-05	436.33	0.90395	123.3
6.2991e-05	441.63	0.89856	129
6.2991e-05	446.94	0.89302	134.96
6.2991e-05	452.24	0.88735	141.2
6.2991e-05	457.55	0.88153	147.75
6.2991e-05	462.86	0.87556	154.65
6.2991e-05	468.16	0.86943	161.92
6.2991e-05	473.47	0.86313	169.59
6.2991e-05	478.78	0.85666	177.71
6.2991e-05	484.08	0.85001	186.34
6.2991e-05	489.39	0.84317	195.54
6.2991e-05	494.69	0.83612	205.34
6.2991e-05	500	0.82886	215.78
7.3036e-05	240	0.97888	-83.533
7.3036e-05	245.31	0.98656	-61.705
7.3036e-05	250.61	0.99172	-44.604
7.3036e-05	255.92	0.99519	-31.304
7.3036e-05	261.22	0.9975	-21.042
7.3036e-05	266.53	0.99895	-12.824
7.3036e-05	271.84	0.99972	-5.9443
7.3036e-05	277.14	0.99996	0.009305
7.3036e-05	282.45	0.99975	5.281
7.3036e-05	287.76	0.99915	10.049
7.3036e-05	293.06	0.99821	14.449
7.3036e-05	298.37	0.99698	18.561
7.3036e-05	303.67	0.99548	22.478
7.3036e-05	308.98	0.99373	26.233
7.3036e-05	314.29	0.99176	29.881
7.3036e-05	319.59	0.98959	33.446
7.3036e-05	324.9	0.98722	36.959
7.3036e-05	330.2	0.98467	40.44
7.3036e-05	335.51	0.98195	43.908
7.3036e-05	340.82	0.97907	47.38
7.3036e-05	346.12	0.97603	50.869
7.3036e-05	351.43	0.97284	54.388
7.3036e-05	356.73	0.96951	57.948
7.3036e-05	362.04	0.96604	61.559
7.3036e-05	367.35	0.96243	65.232
7.3036e-05	372.65	0.95869	68.977
7.3036e-05	377.96	0.95482	72.802
7.3036e-05	383.27	0.95083	76.719
7.3036e-05	388.57	0.9467	80.736
7.3036e-05	393.88	0.94245	84.863
7.3036e-05	399.18	0.93808	89.112
7.3036e-05	404.49	0.93358	93.494
7.3036e-05	409.8	0.92896	98.02
7.3036e-05	415.1	0.92422	102.7
7.3036e-05	420.41	0.91935	107.56
7.3036e-05	425.71	0.91435	112.6
7.3036e-05	431.02	0.90922	117.84
7.3036e-05	436.33	0.90396	123.3
7.3036e-05	441.63	0.89856	128.99
7.3036e-05	446.94	0.89303	134.95
7.3036e-05	452.24	0.88736	141.2
7.3036e-05	457.55	0.88154	147.75
7.3036e-05	462.86	0.87556	154.64
7.3036e-05	468.16	0.86943	161.91
7.3036e-05	473.47	0.86314	169.58
7.3036e-05	478.78	0.85667	177.7
7.3036e-05	484.08	0.85002	186.33
7.3036e-05	489.39	0.84318	195.52
7.3036e-05	494.69	0.83613	205.33
7.3036e-05	500	0.82887	215.77
8.4683e-05	240	0.97889	-83.519
8.4683e-05	245.31	0.98657	-61.695
8.4683e-05	250.61	0.99173	-44.597
8.4683e-05	255.92	0.9952	-31.298
8.4683e-05	261.22	0.99751	-21.038
8.4683e-05	266.53	0.99895	-12.821
8.4683e-05	271.84	0.99973	-5.9412
8.4683e-05	277.14	0.99997	0.011807
8.4683e-05	282.45	0.99975	5.283
8.4683e-05	287.76	0.99915	10.051
8.4683e-05	293.06	0.99822	14.45
8.4683e-05	298.37	0.99698	18.562
8.4683e-05	303.67	0.99548	22.478
8.4683e-05	308.98	0.99374	26.234
8.4683e-05	314.29	0.99177	29.881
8.4683e-05	319.59	0.98959	33.447
8.4683e-05	324.9	0.98723	36.959
8.4683e-05	330.2	0.98468	40.44
8.4683e-05	335.51	0.98196	43.908
8.4683e-05	340.82	0.97907	47.38
8.4683e-05	346.12	0.97604	50.868
8.4683e-05	351.43	0.97285	54.387
8.4683e-05	356.73	0.96952	57.946
8.4683e-05	362.04	0.96604	61.558
8.4683e-05	367.35	0.96244	65.23
8.4683e-05	372.65	0.9587	68.975
8.4683e-05	377.96	0.95483	72.8
8.4683e-05	383.27	0.95083	76.716
8.4683e-05	388.57	0.94671	80.733
8.4683e-05	393.88	0.94246	84.861
8.4683e-05	399.18	0.93809	89.109
8.4683e-05	404.49	0.93359	93.491
8.4683e-05	409.8	0.92897	98.016
8.4683e-05	415.1	0.92422	102.7
8.4683e-05	420.41	0.91935	107.55
8.4683e-05	425.71	0.91435	112.59
8.4683e-05	431.02	0.90922	117.83
8.4683e-05	436.33	0.90397	123.29
8.4683e-05	441.63	0.89857	128.99
8.4683e-05	446.94	0.89304	134.95
8.4683e-05	452.24	0.88736	141.19
8.4683e-05	457.55	0.88154	147.74
8.4683e-05	462.86	0.87557	154.63
8.4683e-05	468.16	0.86944	161.9
8.4683e-05	473.47	0.86315	169.57
8.4683e-05	478.78	0.85668	177.69
8.4683e-05	484.08	0.85003	186.32
8.4683e-05	489.39	0.84319	195.51
8.4683e-05	494.69	0.83614	205.31
8.4683e-05	500	0.82888	215.75
9.8187e-05	240	0.9789	-83.504
9.8187e-05	245.31	0.98658	-61.683
9.8187e-05	250.61	0.99173	-44.588
9.8187e-05	255.92	0.99521	-31.291
9.8187e-05	261.22	0.99752	-21.032
9.8187e-05	266.53	0.99896	-12.816
9.8187e-05	271.84	0.99974	-5.9376
9.8187e-05	277.14	0.99997	0.014708
9.8187e-05	282.45	0.99976	5.2854
9.8187e-05	287.76	0.99916	10.053
9.8187e-05	293.06	0.99822	14.452
9.8187e-05	298.37	0.99699	18.563
9.8187e-05	303.67	0.99549	22.479
9.8187e-05	308.98	0.99374	26.235
9.8187e-05	314.29	0.99178	29.881
9.8187e-05	319.59	0.9896	33.447
9.8187e-05	324.9	0.98723	36.958
9.8187e-05	330.2	0.98468	40.44
9.8187e-05	335.51	0.98196	43.907
9.8187e-05	340.82	0.97908	47.379
9.8187e-05	346.12	0.97604	50.867
9.8187e-05	351.43	0.97285	54.386
9.8187e-05	356.73	0.96952	57.945
9.8187e-05	362.04	0.96605	61.556
9.8187e-05	367.35	0.96244	65.229
9.8187e-05	372.65	0.9587	68.973
9.8187e-05	377.96	0.95484	72.798
9.8187e-05	383.27	0.95084	76.714
9.8187e-05	388.57	0.94671	80.73
9.8187e-05	393.88	0.94247	84.857
9.8187e-05	399.18	0.93809	89.106
9.8187e-05	404.49	0.9336	93.487
9.8187e-05	409.8	0.92898	98.012
9.8187e-05	415.1	0.92423	102.69
9.8187e-05	420.41	0.91936	107.55
9.8187e-05	425.71	0.91436	112.59
9.8187e-05	431.02	0.90923	117.83
9.8187e-05	436.33	0.90397	123.28
9.8187e-05	441.63	0.89858	128.98
9.8187e-05	446.94	0.89305	134.94
9.8187e-05	452.24	0.88737	141.18
9.8187e-05	457.55	0.88155	147.73
9.8187e-05	462.86	0.87558	154.62
9.8187e-05	468.16	0.86945	161.89
9.8187e-05	473.47	0.86316	169.55
9.8187e-05	478.78	0.85669	177.67
9.8187e-05	484.08	0.85004	186.3
9.8187e-05	489.39	0.8432	195.49
9.8187e-05	494.69	0.83616	205.29
9.8187e-05	500	0.82889	215.73
0.00011385	240	0.97891	-83.487
0.00011385	245.31	0.98659	-61.67
0.00011385	250.61	0.99175	-44.578
0.00011385	255.92	0.99522	-31.283
0.00011385	261.22	0.99752	-21.026
0.00011385	266.53	0.99897	-12.811
0.00011385	271.84	0.99974	-5.9334
0.00011385	277.14	0.99998	0.018071
0.00011385	282.45	0.99977	5.2881
0.00011385	287.76	0.99917	10.055
0.00011385	293.06	0.99823	14.454
0.00011385	298.37	0.997	18.565
0.00011385	303.67	0.9955	22.48
0.00011385	308.98	0.99375	26.235
0.00011385	314.29	0.99178	29.881
0.00011385	319.59	0.98961	33.447
0.00011385	324.9	0.98724	36.958
0.00011385	330.2	0.98469	40.439
0.00011385	335.51	0.98197	43.907
0.00011385	340.82	0.97909	47.378
0.00011385	346.12	0.97605	50.866
0.00011385	351.43	0.97286	54.384
0.00011385	356.73	0.96953	57.943
0.00011385	362.04	0.96606	61.554
0.00011385	367.35	0.96245	65.226
0.00011385	372.65	0.95871	68.97
0.00011385	377.96	0.95484	72.795
0.00011385	383.27	0.95085	76.711
0.00011385	388.57	0.94672	80.727
0.00011385	393.88	0.94247	84.854
0.00011385	399.18	0.9381	89.102
0.00011385	404.49	0.93361	93.482
0.00011385	409.8	0.92898	98.007
0.00011385	415.1	0.92424	102.69
0.00011385	420.41	0.91937	107.54
0.00011385	425.71	0.91437	112.58
0.00011385	431.02	0.90924	117.82
0.00011385	436.33	0.90398	123.28
0.00011385	441.63	0.89859	128.97
0.00011385	446.94	0.89306	134.93
0.00011385	452.24	0.88738	141.17
0.00011385	457.55	0.88156	147.72
0.00011385	462.86	0.87559	154.61
0.00011385	468.16	0.86946	161.87
0.00011385	473.47	0.86317	169.54
0.00011385	478.78	0.8567	177.66
0.00011385	484.08	0.85005	186.28
0.00011385	489.39	0.84321	195.47
0.00011385	494.69	0.83617	205.27
0.00011385	500	0.82891	215.71
0.000132	240	0.97893	-83.466
0.000132	245.31	0.98661	-61.654
0.000132	250.61	0.99176	-44.567
0.000132	255.92	0.99523	-31.274
0.000132	261.22	0.99753	-21.019
0.000132	266.53	0.99898	-12.805
0.000132	271.84	0.99975	-5.9286
0.000132	277.14	0.99999	0.02197
0.000132	282.45	0.99978	5.2913
0.000132	287.76	0.99918	10.057
0.000132	293.06	0.99824	14.456
0.000132	298.37	0.99701	18.566
0.000132	303.67	0.9955	22.481
0.000132	308.98	0.99376	26.236
0.000132	314.29	0.99179	29.882
0.000132	319.59	0.98962	33.447
0.000132	324.9	0.98725	36.958
0.000132	330.2	0.9847	40.439
0.000132	335.51	0.98198	43.906
0.000132	340.82	0.9791	47.377
0.000132	346.12	0.97606	50.865
0.000132	351.43	0.97287	54.383
0.000132	356.73	0.96954	57.941
0.000132	362.04	0.96607	61.552
0.000132	367.35	0.96246	65.224
0.000132	372.65	0.95872	68.967
0.000132	377.96	0.95485	72.792
0.000132	383.27	0.95085	76.707
0.000132	388.57	0.94673	80.723
0.000132	393.88	0.94248	84.85
0.000132	399.18	0.93811	89.097
0.000132	404.49	0.93361	93.477
0.000132	409.8	0.92899	98.002
0.000132	415.1	0.92425	102.68
0.000132	420.41	0.91938	107.53
0.000132	425.71	0.91438	112.57
0.000132	431.02	0.90925	117.81
0.000132	436.33	0.90399	123.27
0.000132	441.63	0.8986	128.96
0.000132	446.94	0.89307	134.92
0.000132	452.24	0.8874	141.16
0.000132	457.55	0.88158	147.71
0.000132	462.86	0.87561	154.6
0.000132	468.16	0.86948	161.86
0.000132	473.47	0.86318	169.52
0.000132	478.78	0.85672	177.64
0.000132	484.08	0.85007	186.26
0.000132	489.39	0.84323	195.45
0.000132	494.69	0.83619	205.25
0.000132	500	0.82893	215.68
0.00015305	240	0.97895	-83.443
0.00015305	245.31	0.98662	-61.635
0.00015305	250.61	0.99177	-44.553
0.00015305	255.92	0.99524	-31.263
0.00015305	261.22	0.99755	-21.01
0.00015305	266.53	0.99899	-12.798
0.00015305	271.84	0.99976	-5.923
0.00015305	277.14	1	0.026491
0.00015305	282.45	0.99979	5.2949
0.00015305	287.76	0.99919	10.06
0.00015305	293.06	0.99825	14.458
0.00015305	298.37	0.99701	18.568
0.00015305	303.67	0.99551	22.483
0.00015305	308.98	0.99377	26.237
0.00015305	314.29	0.9918	29.882
0.00015305	319.59	0.98962	33.447
0.00015305	324.9	0.98726	36.958
0.00015305	330.2	0.98471	40.438
0.00015305	335.51	0.98199	43.905
0.00015305	340.82	0.97911	47.376
0.00015305	346.12	0.97607	50.863
0.00015305	351.43	0.97288	54.381
0.00015305	356.73	0.96955	57.939
0.00015305	362.04	0.96608	61.549
0.00015305	367.35	0.96247	65.221
0.00015305	372.65	0.95873	68.964
0.00015305	377.96	0.95486	72.788
0.00015305	383.27	0.95086	76.703
0.00015305	388.57	0.94674	80.719
0.00015305	393.88	0.94249	84.845
0.00015305	399.18	0.93812	89.092
0.00015305	404.49	0.93363	93.472
0.00015305	409.8	0.92901	97.995
0.00015305	415.1	0.92426	102.68
0.00015305	420.41	0.91939	107.53
0.00015305	425.71	0.91439	112.56
0.00015305	431.02	0.90927	117.8
0.00015305	436.33	0.90401	123.26
0.00015305	441.63	0.89861	128.95
0.00015305	446.94	0.89308	134.91
0.00015305	452.24	0.88741	141.15
0.00015305	457.55	0.88159	147.69
0.00015305	462.86	0.87562	154.58
0.00015305	468.16	0.86949	161.84
0.00015305	473.47	0.8632	169.51
0.00015305	478.78	0.85673	177.62
0.00015305	484.08	0.85009	186.24
0.00015305	489.39	0.84325	195.43
0.00015305	494.69	0.83621	205.22
0.00015305	500	0.82895	215.65
0.00017746	240	0.97897	-83.415
0.00017746	245.31	0.98664	-61.614
0.00017746	250.61	0.99179	-44.538
0.00017746	255.92	0.99526	-31.251
0.00017746	261.22	0.99756	-21
0.00017746	266.53	0.999	-12.79
0.00017746	271.84	0.99978	-5.9165
0.00017746	277.14	1	0.031731
0.00017746	282.45	0.9998	5.2992
0.00017746	287.76	0.9992	10.064
0.00017746	293.06	0.99826	14.461
0.00017746	298.37	0.99703	18.57
0.00017746	303.67	0.99552	22.484
0.00017746	308.98	0.99378	26.238
0.00017746	314.29	0.99181	29.883
0.00017746	319.59	0.98964	33.447
0.00017746	324.9	0.98727	36.957
0.00017746	330.2	0.98472	40.437
0.00017746	335.51	0.982	43.904
0.00017746	340.82	0.97912	47.374
0.00017746	346.12	0.97608	50.861
0.00017746	351.43	0.97289	54.378
0.00017746	356.73	0.96956	57.937
0.00017746	362.04	0.96609	61.546
0.00017746	367.35	0.96248	65.218
0.00017746	372.65	0.95874	68.96
0.00017746	377.96	0.95487	72.784
0.00017746	383.27	0.95088	76.699
0.00017746	388.57	0.94675	80.713
0.00017746	393.88	0.94251	84.839
0.00017746	399.18	0.93813	89.086
0.00017746	404.49	0.93364	93.465
0.00017746	409.8	0.92902	97.988
0.00017746	415.1	0.92427	102.67
0.00017746	420.41	0.9194	107.52
0.00017746	425.71	0.91441	112.55
0.00017746	431.02	0.90928	117.79
0.00017746	436.33	0.90402	123.25
0.00017746	441.63	0.89863	128.94
0.00017746	446.94	0.8931	134.9
0.00017746	452.24	0.88743	141.13
0.00017746	457.55	0.88161	147.68
0.00017746	462.86	0.87564	154.56
0.00017746	468.16	0.86951	161.82
0.00017746	473.47	0.86322	169.48
0.00017746	478.78	0.85675	177.59
0.00017746	484.08	0.85011	186.22
0.00017746	489.39	0.84327	195.4
0.00017746	494.69	0.83623	205.19
0.00017746	500	0.82897	215.62
0.00020576	240	0.979	-83.383
0.00020576	245.31	0.98666	-61.589
0.00020576	250.61	0.99181	-44.52
0.00020576	255.92	0.99528	-31.237
0.00020576	261.22	0.99758	-20.989
0.00020576	266.53	0.99902	-12.781
0.00020576	271.84	0.99979	-5.909
0.00020576	277.14	1	0.037807
0.00020576	282.45	0.99981	5.3041
0.00020576	287.76	0.99921	10.068
0.00020576	293.06	0.99827	14.464
0.00020576	298.37	0.99704	18.572
0.00020576	303.67	0.99554	22.486
0.00020576	308.98	0.99379	26.239
0.00020576	314.29	0.99182	29.883
0.00020576	319.59	0.98965	33.447
0.00020576	324.9	0.98728	36.957
0.00020576	330.2	0.98473	40.437
0.00020576	335.51	0.98201	43.903
0.00020576	340.82	0.97913	47.372
0.00020576	346.12	0.97609	50.859
0.00020576	351.43	0.9729	54.376
0.00020576	356.73	0.96957	57.934
0.00020576	362.04	0.9661	61.543
0.00020576	367.35	0.96249	65.214
0.00020576	372.65	0.95875	68.956
0.00020576	377.96	0.95489	72.779
0.00020576	383.27	0.95089	76.693
0.00020576	388.57	0.94677	80.707
0.00020576	393.88	0.94252	84.832
0.00020576	399.18	0.93815	89.078
0.00020576	404.49	0.93365	93.457
0.00020576	409.8	0.92903	97.979
0.00020576	415.1	0.92429	102.66
0.00020576	420.41	0.91942	107.51
0.00020576	425.71	0.91442	112.54
0.00020576	431.02	0.9093	117.78
0.00020576	436.33	0.90404	123.23
0.00020576	441.63	0.89865	128.93
0.00020576	446.94	0.89312	134.88
0.00020576	452.24	0.88745	141.11
0.00020576	457.55	0.88163	147.66
0.00020576	462.86	0.87566	154.54
0.00020576	468.16	0.86953	161.8
0.00020576	473.47	0.86324	169.46
0.00020576	478.78	0.85678	177.57
0.00020576	484.08	0.85013	186.19
0.00020576	489.39	0.84329	195.37
0.00020576	494.69	0.83625	205.15
0.00020576	500	0.829	215.57
0.00023857	240	0.97903	-83.347
0.00023857	245.31	0.98669	-61.561
0.00023857	250.61	0.99183	-44.499
0.00023857	255.92	0.9953	-31.22
0.00023857	261.22	0.9976	-20.976
0.00023857	266.53	0.99904	-12.77
0.00023857	271.84	0.99981	-5.9003
0.00023857	277.14	1	0.044849
0.00023857	282.45	0.99983	5.3098
0.00023857	287.76	0.99923	10.072
0.00023857	293.06	0.99829	14.467
0.00023857	298.37	0.99705	18.575
0.00023857	303.67	0.99555	22.488
0.00023857	308.98	0.99381	26.24
0.00023857	314.29	0.99184	29.884
0.00023857	319.59	0.98966	33.447
0.00023857	324.9	0.98729	36.957
0.00023857	330.2	0.98475	40.436
0.00023857	335.51	0.98203	43.901
0.00023857	340.82	0.97914	47.371
0.00023857	346.12	0.9761	50.857
0.00023857	351.43	0.97292	54.373
0.00023857	356.73	0.96959	57.93
0.00023857	362.04	0.96612	61.539
0.00023857	367.35	0.96251	65.209
0.00023857	372.65	0.95877	68.951
0.00023857	377.96	0.9549	72.774
0.00023857	383.27	0.95091	76.687
0.00023857	388.57	0.94678	80.7
0.00023857	393.88	0.94254	84.825
0.00023857	399.18	0.93817	89.07
0.00023857	404.49	0.93367	93.448
0.00023857	409.8	0.92905	97.969
0.00023857	415.1	0.92431	102.65
0.00023857	420.41	0.91944	107.5
0.00023857	425.71	0.91444	112.53
0.00023857	431.02	0.90932	117.76
0.00023857	436.33	0.90406	123.22
0.00023857	441.63	0.89867	128.91
0.00023857	446.94	0.89314	134.86
0.00023857	452.24	0.88747	141.09
0.00023857	457.55	0.88165	147.63
0.00023857	462.86	0.87568	154.52
0.00023857	468.16	0.86956	161.77
0.00023857	473.47	0.86327	169.43
0.00023857	478.78	0.8568	177.54
0.00023857	484.08	0.85016	186.15
0.00023857	489.39	0.84332	195.33
0.00023857	494.69	0.83628	205.11
0.00023857	500	0.82903	215.53
0.00027661	240	0.97906	-83.304
0.00027661	245.31	0.98672	-61.527
0.00027661	250.61	0.99185	-44.475
0.00027661	255.92	0.99532	-31.2
0.00027661	261.22	0.99762	-20.961
0.00027661	266.53	0.99906	-12.758
0.00027661	271.84	0.99983	-5.8901
0.00027661	277.14	1.0001	0.053014
0.00027661	282.45	0.99984	5.3164
0.00027661	287.76	0.99924	10.077
0.00027661	293.06	0.99831	14.471
0.00027661	298.37	0.99707	18.578
0.00027661	303.67	0.99557	22.49
0.00027661	308.98	0.99382	26.242
0.00027661	314.29	0.99185	29.885
0.00027661	319.59	0.98968	33.447
0.00027661	324.9	0.98731	36.956
0.00027661	330.2	0.98476	40.434
0.00027661	335.51	0.98204	43.9
0.00027661	340.82	0.97916	47.368
0.00027661	346.12	0.97612	50.854
0.00027661	351.43	0.97293	54.37
0.00027661	356.73	0.9696	57.926
0.00027661	362.04	0.96613	61.534
0.00027661	367.35	0.96253	65.204
0.00027661	372.65	0.95879	68.945
0.00027661	377.96	0.95492	72.767
0.00027661	383.27	0.95092	76.68
0.00027661	388.57	0.9468	80.692
0.00027661	393.88	0.94256	84.816
0.00027661	399.18	0.93819	89.06
0.00027661	404.49	0.93369	93.437
0.00027661	409.8	0.92907	97.957
0.00027661	415.1	0.92433	102.63
0.00027661	420.41	0.91946	107.48
0.00027661	425.71	0.91446	112.51
0.00027661	431.02	0.90934	117.75
0.00027661	436.33	0.90408	123.2
0.00027661	441.63	0.89869	128.89
0.00027661	446.94	0.89316	134.84
0.00027661	452.24	0.88749	141.07
0.00027661	457.55	0.88168	147.61
0.00027661	462.86	0.87571	154.49
0.00027661	468.16	0.86958	161.74
0.00027661	473.47	0.86329	169.4
0.00027661	478.78	0.85683	177.5
0.00027661	484.08	0.85019	186.11
0.00027661	489.39	0.84336	195.28
0.00027661	494.69	0.83632	205.06
0.00027661	500	0.82907	215.47
0.00032073	240	0.9791	-83.254
0.00032073	245.31	0.98675	-61.489
0.00032073	250.61	0.99188	-44.447
0.00032073	255.92	0.99535	-31.178
0.00032073	261.22	0.99764	-20.943
0.00032073	266.53	0.99908	-12.744
0.00032073	271.84	0.99985	-5.8784
0.00032073	277.14	1.0001	0.062477
0.00032073	282.45	0.99987	5.324
0.00032073	287.76	0.99926	10.083
0.00032073	293.06	0.99833	14.476
0.00032073	298.37	0.99709	18.582
0.00032073	303.67	0.99559	22.493
0.00032073	308.98	0.99384	26.243
0.00032073	314.29	0.99187	29.886
0.00032073	319.59	0.9897	33.447
0.00032073	324.9	0.98733	36.956
0.00032073	330.2	0.98478	40.433
0.00032073	335.51	0.98206	43.898
0.00032073	340.82	0.97918	47.366
0.00032073	346.12	0.97614	50.851
0.00032073	351.43	0.97295	54.366
0.00032073	356.73	0.96962	57.921
0.00032073	362.04	0.96615	61.529
0.00032073	367.35	0.96255	65.198
0.00032073	372.65	0.95881	68.938
0.00032073	377.96	0.95494	72.759
0.00032073	383.27	0.95095	76.671
0.00032073	388.57	0.94682	80.683
0.00032073	393.88	0.94258	84.805
0.00032073	399.18	0.93821	89.049
0.00032073	404.49	0.93371	93.425
0.00032073	409.8	0.9291	97.944
0.00032073	415.1	0.92435	102.62
0.00032073	420.41	0.91948	107.47
0.00032073	425.71	0.91449	112.5
0.00032073	431.02	0.90936	117.73
0.00032073	436.33	0.90411	123.18
0.00032073	441.63	0.89872	128.87
0.00032073	446.94	0.89319	134.82
0.00032073	452.24	0.88752	141.04
0.00032073	457.55	0.88171	147.58
0.00032073	462.86	0.87574	154.46
0.00032073	468.16	0.86962	161.71
0.00032073	473.47	0.86333	169.36
0.00032073	478.78	0.85687	177.46
0.00032073	484.08	0.85023	186.06
0.00032073	489.39	0.84339	195.23
0.00032073	494.69	0.83636	205
0.00032073	500	0.82911	215.41
0.00037187	240	0.97915	-83.197
0.00037187	245.31	0.98679	-61.444
0.00037187	250.61	0.99192	-44.414
0.00037187	255.92	0.99538	-31.152
0.00037187	261.22	0.99767	-20.923
0.00037187	266.53	0.99911	-12.727
0.00037187	271.84	0.99988	-5.8648
0.00037187	277.14	1.0001	0.073447
0.00037187	282.45	0.99989	5.3329
0.00037187	287.76	0.99929	10.09
0.00037187	293.06	0.99835	14.482
0.00037187	298.37	0.99711	18.586
0.00037187	303.67	0.99561	22.496
0.00037187	308.98	0.99386	26.246
0.00037187	314.29	0.9919	29.887
0.00037187	319.59	0.98972	33.448
0.00037187	324.9	0.98735	36.955
0.00037187	330.2	0.9848	40.432
0.00037187	335.51	0.98208	43.895
0.00037187	340.82	0.9792	47.363
0.00037187	346.12	0.97616	50.847
0.00037187	351.43	0.97298	54.361
0.00037187	356.73	0.96965	57.916
0.00037187	362.04	0.96618	61.523
0.00037187	367.35	0.96257	65.191
0.00037187	372.65	0.95883	68.93
0.00037187	377.96	0.95497	72.751
0.00037187	383.27	0.95097	76.661
0.00037187	388.57	0.94685	80.672
0.00037187	393.88	0.9426	84.794
0.00037187	399.18	0.93823	89.036
0.00037187	404.49	0.93374	93.41
0.00037187	409.8	0.92912	97.928
0.00037187	415.1	0.92438	102.6
0.00037187	420.41	0.91951	107.45
0.00037187	425.71	0.91452	112.48
0.00037187	431.02	0.9094	117.71
0.00037187	436.33	0.90414	123.16
0.00037187	441.63	0.89875	128.84
0.00037187	446.94	0.89323	134.79
0.00037187	452.24	0.88756	141.01
0.00037187	457.55	0.88174	147.55
0.00037187	462.86	0.87578	154.42
0.00037187	468.16	0.86966	161.67
0.00037187	473.47	0.86337	169.31
0.00037187	478.78	0.85691	177.41
0.00037187	484.08	0.85027	186.01
0.00037187	489.39	0.84344	195.17
0.00037187	494.69	0.83641	204.93
0.00037187	500	0.82916	215.33
0.00043118	240	0.9792	-83.13
0.00043118	245.31	0.98683	-61.393
0.00043118	250.61	0.99196	-44.376
0.00043118	255.92	0.99541	-31.122
0.00043118	261.22	0.99771	-20.899
0.00043118	266.53	0.99914	-12.708
0.00043118	271.84	0.99991	-5.8491
0.00043118	277.14	1.0001	0.086161
0.00043118	282.45	0.99992	5.3432
0.00043118	287.76	0.99932	10.099
0.00043118	293.06	0.99838	14.488
0.00043118	298.37	0.99714	18.591
0.00043118	303.67	0.99564	22.499
0.00043118	308.98	0.99389	26.248
0.00043118	314.29	0.99192	29.888
0.00043118	319.59	0.98975	33.448
0.00043118	324.9	0.98738	36.954
0.00043118	330.2	0.98483	40.43
0.00043118	335.51	0.98211	43.893
0.00043118	340.82	0.97923	47.359
0.00043118	346.12	0.97619	50.842
0.00043118	351.43	0.973	54.356
0.00043118	356.73	0.96967	57.91
0.00043118	362.04	0.9662	61.516
0.00043118	367.35	0.9626	65.183
0.00043118	372.65	0.95886	68.921
0.00043118	377.96	0.95499	72.74
0.00043118	383.27	0.951	76.65
0.00043118	388.57	0.94688	80.66
0.00043118	393.88	0.94263	84.78
0.00043118	399.18	0.93826	89.021
0.00043118	404.49	0.93377	93.394
0.00043118	409.8	0.92915	97.91
0.00043118	415.1	0.92441	102.58
0.00043118	420.41	0.91955	107.43
0.00043118	425.71	0.91455	112.45
0.00043118	431.02	0.90943	117.68
0.00043118	436.33	0.90418	123.13
0.00043118	441.63	0.89879	128.81
0.00043118	446.94	0.89326	134.75
0.00043118	452.24	0.8876	140.98
0.00043118	457.55	0.88178	147.51
0.00043118	462.86	0.87582	154.38
0.00043118	468.16	0.8697	161.62
0.00043118	473.47	0.86341	169.26
0.00043118	478.78	0.85696	177.35
0.00043118	484.08	0.85032	185.94
0.00043118	489.39	0.84349	195.1
0.00043118	494.69	0.83646	204.86
0.00043118	500	0.82922	215.25
0.00049994	240	0.97926	-83.053
0.00049994	245.31	0.98688	-61.333
0.00049994	250.61	0.992	-44.332
0.00049994	255.92	0.99546	-31.087
0.00049994	261.22	0.99774	-20.871
0.00049994	266.53	0.99918	-12.685
0.00049994	271.84	0.99994	-5.8309
0.00049994	277.14	1.0002	0.1009
0.00049994	282.45	0.99995	5.3551
0.00049994	287.76	0.99935	10.108
0.00049994	293.06	0.99841	14.496
0.00049994	298.37	0.99717	18.597
0.00049994	303.67	0.99567	22.504
0.00049994	308.98	0.99392	26.251
0.00049994	314.29	0.99195	29.89
0.00049994	319.59	0.98978	33.448
0.00049994	324.9	0.98741	36.953
0.00049994	330.2	0.98486	40.428
0.00049994	335.51	0.98214	43.89
0.00049994	340.82	0.97926	47.355
0.00049994	346.12	0.97622	50.837
0.00049994	351.43	0.97303	54.349
0.00049994	356.73	0.9697	57.903
0.00049994	362.04	0.96623	61.507
0.00049994	367.35	0.96263	65.173
0.00049994	372.65	0.95889	68.911
0.00049994	377.96	0.95503	72.728
0.00049994	383.27	0.95103	76.637
0.00049994	388.57	0.94691	80.645
0.00049994	393.88	0.94267	84.764
0.00049994	399.18	0.9383	89.003
0.00049994	404.49	0.93381	93.374
0.00049994	409.8	0.92919	97.889
0.00049994	415.1	0.92445	102.56
0.00049994	420.41	0.91959	107.4
0.00049994	425.71	0.91459	112.43
0.00049994	431.02	0.90947	117.65
0.00049994	436.33	0.90422	123.1
0.00049994	441.63	0.89883	128.78
0.00049994	446.94	0.89331	134.72
0.00049994	452.24	0.88764	140.93
0.00049994	457.55	0.88183	147.46
0.00049994	462.86	0.87587	154.33
0.00049994	468.16	0.86975	161.56
0.00049994	473.47	0.86347	169.2
0.00049994	478.78	0.85701	177.28
0.00049994	484.08	0.85038	185.87
0.00049994	489.39	0.84355	195.02
0.00049994	494.69	0.83652	204.77
0.00049994	500	0.82928	215.15
0.00057966	240	0.97933	-82.964
0.00057966	245.31	0.98695	-61.263
0.00057966	250.61	0.99206	-44.281
0.00057966	255.92	0.99551	-31.046
0.00057966	261.22	0.99779	-20.839
0.00057966	266.53	0.99922	-12.659
0.00057966	271.84	0.99998	-5.8097
0.00057966	277.14	1.0002	0.11798
0.00057966	282.45	0.99999	5.3689
0.00057966	287.76	0.99938	10.119
0.00057966	293.06	0.99844	14.504
0.00057966	298.37	0.99721	18.603
0.00057966	303.67	0.9957	22.508
0.00057966	308.98	0.99396	26.254
0.00057966	314.29	0.99199	29.891
0.00057966	319.59	0.98981	33.449
0.00057966	324.9	0.98744	36.953
0.00057966	330.2	0.98489	40.426
0.00057966	335.51	0.98217	43.886
0.00057966	340.82	0.97929	47.35
0.00057966	346.12	0.97626	50.831
0.00057966	351.43	0.97307	54.342
0.00057966	356.73	0.96974	57.894
0.00057966	362.04	0.96627	61.498
0.00057966	367.35	0.96267	65.162
0.00057966	372.65	0.95893	68.898
0.00057966	377.96	0.95506	72.715
0.00057966	383.27	0.95107	76.621
0.00057966	388.57	0.94695	80.628
0.00057966	393.88	0.94271	84.745
0.00057966	399.18	0.93834	88.983
0.00057966	404.49	0.93385	93.352
0.00057966	409.8	0.92923	97.865
0.00057966	415.1	0.92449	102.53
0.00057966	420.41	0.91963	107.37
0.00057966	425.71	0.91464	112.39
0.00057966	431.02	0.90952	117.62
0.00057966	436.33	0.90427	123.06
0.00057966	441.63	0.89888	128.73
0.00057966	446.94	0.89336	134.67
0.00057966	452.24	0.8877	140.89
0.00057966	457.55	0.88189	147.41
0.00057966	462.86	0.87593	154.27
0.00057966	468.16	0.86981	161.5
0.00057966	473.47	0.86353	169.13
0.00057966	478.78	0.85708	177.21
0.00057966	484.08	0.85044	185.79
0.00057966	489.39	0.84362	194.93
0.00057966	494.69	0.8366	204.66
0.00057966	500	0.82936	215.03
0.0006721	240	0.97941	-82.86
0.0006721	245.31	0.98702	-61.183
0.0006721	250.61	0.99212	-44.222
0.0006721	255.92	0.99556	-30.999
0.0006721	261.22	0.99784	-20.802
0.0006721	266.53	0.99927	-12.629
0.0006721	271.84	1	-5.7852
0.0006721	277.14	1.0003	0.13777
0.0006721	282.45	1	5.3849
0.0006721	287.76	0.99943	10.132
0.0006721	293.06	0.99849	14.514
0.0006721	298.37	0.99725	18.611
0.0006721	303.67	0.99574	22.514
0.0006721	308.98	0.994	26.258
0.0006721	314.29	0.99203	29.893
0.0006721	319.59	0.98985	33.449
0.0006721	324.9	0.98748	36.951
0.0006721	330.2	0.98493	40.423
0.0006721	335.51	0.98222	43.882
0.0006721	340.82	0.97933	47.345
0.0006721	346.12	0.9763	50.825
0.0006721	351.43	0.97311	54.334
0.0006721	356.73	0.96978	57.884
0.0006721	362.04	0.96631	61.486
0.0006721	367.35	0.96271	65.15
0.0006721	372.65	0.95897	68.884
0.0006721	377.96	0.95511	72.699
0.0006721	383.27	0.95112	76.604
0.0006721	388.57	0.947	80.609
0.0006721	393.88	0.94275	84.724
0.0006721	399.18	0.93839	88.959
0.0006721	404.49	0.9339	93.326
0.0006721	409.8	0.92928	97.837
0.0006721	415.1	0.92455	102.5
0.0006721	420.41	0.91968	107.34
0.0006721	425.71	0.91469	112.36
0.0006721	431.02	0.90957	117.58
0.0006721	436.33	0.90432	123.01
0.0006721	441.63	0.89894	128.69
0.0006721	446.94	0.89342	134.62
0.0006721	452.24	0.88776	140.83
0.0006721	457.55	0.88195	147.35
0.0006721	462.86	0.87599	154.2
0.0006721	468.16	0.86988	161.43
0.0006721	473.47	0.8636	169.05
0.0006721	478.78	0.85715	177.12
0.0006721	484.08	0.85052	185.69
0.0006721	489.39	0.8437	194.82
0.0006721	494.69	0.83668	204.54
0.0006721	500	0.82945	214.9
0.00077928	240	0.97951	-82.74
0.00077928	245.31	0.9871	-61.09
0.00077928	250.61	0.99219	-44.154
0.00077928	255.92	0.99563	-30.945
0.00077928	261.22	0.9979	-20.76
0.00077928	266.53	0.99933	-12.594
0.00077928	271.84	1.0001	-5.7569
0.00077928	277.14	1.0003	0.1607
0.00077928	282.45	1.0001	5.4035
0.00077928	287.76	0.99948	10.147
0.00077928	293.06	0.99854	14.526
0.00077928	298.37	0.9973	18.62
0.00077928	303.67	0.99579	22.521
0.00077928	308.98	0.99404	26.262
0.00077928	314.29	0.99207	29.896
0.00077928	319.59	0.9899	33.449
0.00077928	324.9	0.98753	36.95
0.00077928	330.2	0.98498	40.42
0.00077928	335.51	0.98226	43.877
0.00077928	340.82	0.97938	47.339
0.00077928	346.12	0.97634	50.817
0.00077928	351.43	0.97316	54.324
0.00077928	356.73	0.96983	57.873
0.00077928	362.04	0.96636	61.473
0.00077928	367.35	0.96276	65.135
0.00077928	372.65	0.95902	68.868
0.00077928	377.96	0.95516	72.68
0.00077928	383.27	0.95117	76.583
0.00077928	388.57	0.94705	80.586
0.00077928	393.88	0.94281	84.699
0.00077928	399.18	0.93844	88.932
0.00077928	404.49	0.93395	93.297
0.00077928	409.8	0.92934	97.804
0.00077928	415.1	0.9246	102.47
0.00077928	420.41	0.91974	107.3
0.00077928	425.71	0.91475	112.32
0.00077928	431.02	0.90964	117.53
0.00077928	436.33	0.90439	122.96
0.00077928	441.63	0.89901	128.63
0.00077928	446.94	0.89349	134.56
0.00077928	452.24	0.88783	140.76
0.00077928	457.55	0.88202	147.27
0.00077928	462.86	0.87607	154.12
0.00077928	468.16	0.86996	161.34
0.00077928	473.47	0.86368	168.95
0.00077928	478.78	0.85724	177.01
0.00077928	484.08	0.85061	185.57
0.00077928	489.39	0.8438	194.69
0.00077928	494.69	0.83678	204.4
0.00077928	500	0.82955	214.74
0.00090355	240	0.97962	-82.601
0.00090355	245.31	0.98719	-60.982
0.00090355	250.61	0.99228	-44.074
0.00090355	255.92	0.9957	-30.882
0.00090355	261.22	0.99798	-20.71
0.00090355	266.53	0.99939	-12.554
0.00090355	271.84	1.0002	-5.724
0.00090355	277.14	1.0004	0.18728
0.00090355	282.45	1.0001	5.4249
0.00090355	287.76	0.99954	10.164
0.00090355	293.06	0.99859	14.539
0.00090355	298.37	0.99735	18.63
0.00090355	303.67	0.99585	22.528
0.00090355	308.98	0.9941	26.267
0.00090355	314.29	0.99213	29.898
0.00090355	319.59	0.98995	33.45
0.00090355	324.9	0.98758	36.949
0.00090355	330.2	0.98504	40.417
0.00090355	335.51	0.98232	43.872
0.00090355	340.82	0.97944	47.331
0.00090355	346.12	0.9764	50.807
0.00090355	351.43	0.97321	54.313
0.00090355	356.73	0.96989	57.86
0.00090355	362.04	0.96642	61.459
0.00090355	367.35	0.96282	65.118
0.00090355	372.65	0.95908	68.848
0.00090355	377.96	0.95522	72.659
0.00090355	383.27	0.95123	76.56
0.00090355	388.57	0.94711	80.56
0.00090355	393.88	0.94287	84.67
0.00090355	399.18	0.93851	88.9
0.00090355	404.49	0.93402	93.262
0.00090355	409.8	0.92941	97.766
0.00090355	415.1	0.92467	102.43
0.00090355	420.41	0.91981	107.25
0.00090355	425.71	0.91483	112.27
0.00090355	431.02	0.90971	117.48
0.00090355	436.33	0.90446	122.91
0.00090355	441.63	0.89909	128.57
0.00090355	446.94	0.89357	134.49
0.00090355	452.24	0.88791	140.69
0.00090355	457.55	0.88211	147.19
0.00090355	462.86	0.87616	154.03
0.00090355	468.16	0.87005	161.24
0.00090355	473.47	0.86378	168.85
0.00090355	478.78	0.85734	176.89
0.00090355	484.08	0.85072	185.44
0.00090355	489.39	0.8439	194.55
0.00090355	494.69	0.83689	204.24
0.00090355	500	0.82967	214.56
0.0010476	240	0.97975	-82.44
0.0010476	245.31	0.9873	-60.857
0.0010476	250.61	0.99237	-43.982
0.0010476	255.92	0.99579	-30.809
0.0010476	261.22	0.99806	-20.652
0.0010476	266.53	0.99947	-12.507
0.0010476	271.84	1.0002	-5.6859
0.0010476	277.14	1.0004	0.21806
0.0010476	282.45	1.0002	5.4499
0.0010476	287.76	0.9996	10.183
0.0010476	293.06	0.99866	14.555
0.0010476	298.37	0.99742	18.642
0.0010476	303.67	0.99591	22.537
0.0010476	308.98	0.99416	26.273
0.0010476	314.29	0.99219	29.902
0.0010476	319.59	0.99002	33.451
0.0010476	324.9	0.98765	36.947
0.0010476	330.2	0.9851	40.413
0.0010476	335.51	0.98238	43.866
0.0010476	340.82	0.9795	47.323
0.0010476	346.12	0.97646	50.797
0.0010476	351.43	0.97328	54.3
0.0010476	356.73	0.96995	57.845
0.0010476	362.04	0.96648	61.441
0.0010476	367.35	0.96288	65.098
0.0010476	372.65	0.95915	68.826
0.0010476	377.96	0.95529	72.634
0.0010476	383.27	0.9513	76.532
0.0010476	388.57	0.94718	80.529
0.0010476	393.88	0.94294	84.636
0.0010476	399.18	0.93858	88.864
0.0010476	404.49	0.93409	93.222
0.0010476	409.8	0.92948	97.723
0.0010476	415.1	0.92475	102.38
0.0010476	420.41	0.91989	107.2
0.0010476	425.71	0.91491	112.21
0.0010476	431.02	0.9098	117.42
0.0010476	436.33	0.90455	122.84
0.0010476	441.63	0.89918	128.5
0.0010476	446.94	0.89366	134.41
0.0010476	452.24	0.88801	140.6
0.0010476	457.55	0.88221	147.1
0.0010476	462.86	0.87626	153.93
0.0010476	468.16	0.87016	161.13
0.0010476	473.47	0.86389	168.72
0.0010476	478.78	0.85745	176.75
0.0010476	484.08	0.85084	185.29
0.0010476	489.39	0.84403	194.38
0.0010476	494.69	0.83702	204.06
0.0010476	500	0.82981	214.35
0.0012147	240	0.9799	-82.253
0.0012147	245.31	0.98743	-60.712
0.0012147	250.61	0.99248	-43.875
0.0012147	255.92	0.99589	-30.724
0.0012147	261.22	0.99815	-20.586
0.0012147	266.53	0.99956	-12.453
0.0012147	271.84	1.0003	-5.6418
0.0012147	277.14	1.0005	0.25373
0.0012147	282.45	1.0003	5.4787
0.0012147	287.76	0.99968	10.206
0.0012147	293.06	0.99873	14.573
0.0012147	298.37	0.99749	18.656
0.0012147	303.67	0.99599	22.547
0.0012147	308.98	0.99424	26.28
0.0012147	314.29	0.99226	29.905
0.0012147	319.59	0.99009	33.451
0.0012147	324.9	0.98772	36.945
0.0012147	330.2	0.98517	40.408
0.0012147	335.51	0.98245	43.859
0.0012147	340.82	0.97957	47.313
0.0012147	346.12	0.97654	50.784
0.0012147	351.43	0.97335	54.285
0.0012147	356.73	0.97003	57.828
0.0012147	362.04	0.96656	61.421
0.0012147	367.35	0.96296	65.076
0.0012147	372.65	0.95923	68.801
0.0012147	377.96	0.95537	72.606
0.0012147	383.27	0.95138	76.5
0.0012147	388.57	0.94726	80.494
0.0012147	393.88	0.94303	84.598
0.0012147	399.18	0.93867	88.821
0.0012147	404.49	0.93418	93.175
0.0012147	409.8	0.92957	97.672
0.0012147	415.1	0.92484	102.32
0.0012147	420.41	0.91999	107.14
0.0012147	425.71	0.915	112.14
0.0012147	431.02	0.90989	117.34
0.0012147	436.33	0.90465	122.76
0.0012147	441.63	0.89928	128.41
0.0012147	446.94	0.89377	134.32
0.0012147	452.24	0.88812	140.5
0.0012147	457.55	0.88233	146.99
0.0012147	462.86	0.87638	153.81
0.0012147	468.16	0.87028	161
0.0012147	473.47	0.86402	168.57
0.0012147	478.78	0.85759	176.59
0.0012147	484.08	0.85097	185.11
0.0012147	489.39	0.84418	194.18
0.0012147	494.69	0.83718	203.84
0.0012147	500	0.82997	214.11
0.0014084	240	0.98007	-82.037
0.0014084	245.31	0.98757	-60.545
0.0014084	250.61	0.99261	-43.751
0.0014084	255.92	0.99601	-30.626
0.0014084	261.22	0.99826	-20.508
0.0014084	266.53	0.99967	-12.39
0.0014084	271.84	1.0004	-5.5907
0.0014084	277.14	1.0006	0.29503
0.0014084	282.45	1.0004	5.5121
0.0014084	287.76	0.99977	10.233
0.0014084	293.06	0.99882	14.594
0.0014084	298.37	0.99758	18.672
0.0014084	303.67	0.99607	22.559
0.0014084	308.98	0.99432	26.287
0.0014084	314.29	0.99235	29.909
0.0014084	319.59	0.99017	33.452
0.0014084	324.9	0.9878	36.942
0.0014084	330.2	0.98526	40.403
0.0014084	335.51	0.98254	43.85
0.0014084	340.82	0.97966	47.302
0.0014084	346.12	0.97662	50.77
0.0014084	351.43	0.97344	54.268
0.0014084	356.73	0.97011	57.807
0.0014084	362.04	0.96665	61.398
0.0014084	367.35	0.96305	65.049
0.0014084	372.65	0.95932	68.771
0.0014084	377.96	0.95546	72.572
0.0014084	383.27	0.95147	76.463
0.0014084	388.57	0.94736	80.454
0.0014084	393.88	0.94312	84.553
0.0014084	399.18	0.93876	88.772
0.0014084	404.49	0.93428	93.122
0.0014084	409.8	0.92968	97.613
0.0014084	415.1	0.92495	102.26
0.0014084	420.41	0.92009	107.07
0.0014084	425.71	0.91512	112.07
0.0014084	431.02	0.91001	117.26
0.0014084	436.33	0.90477	122.67
0.0014084	441.63	0.8994	128.31
0.0014084	446.94	0.8939	134.21
0.0014084	452.24	0.88825	140.38
0.0014084	457.55	0.88246	146.86
0.0014084	462.86	0.87652	153.67
0.0014084	468.16	0.87042	160.84
0.0014084	473.47	0.86417	168.41
0.0014084	478.78	0.85774	176.41
0.0014084	484.08	0.85114	184.91
0.0014084	489.39	0.84434	193.96
0.0014084	494.69	0.83735	203.59
0.0014084	500	0.83015	213.84
0.001633	240	0.98027	-81.786
0.001633	245.31	0.98774	-60.352
0.001633	250.61	0.99276	-43.607
0.001633	255.92	0.99615	-30.513
0.001633	261.22	0.99839	-20.419
0.001633	266.53	0.99979	-12.318
0.001633	271.84	1.0005	-5.5316
0.001633	277.14	1.0007	0.34287
0.001633	282.45	1.0005	5.5508
0.001633	287.76	0.99988	10.264
0.001633	293.06	0.99893	14.618
0.001633	298.37	0.99768	18.691
0.001633	303.67	0.99617	22.572
0.001633	308.98	0.99442	26.296
0.001633	314.29	0.99245	29.914
0.001633	319.59	0.99027	33.453
0.001633	324.9	0.9879	36.94
0.001633	330.2	0.98535	40.396
0.001633	335.51	0.98264	43.84
0.001633	340.82	0.97976	47.288
0.001633	346.12	0.97672	50.753
0.001633	351.43	0.97354	54.248
0.001633	356.73	0.97021	57.784
0.001633	362.04	0.96675	61.371
0.001633	367.35	0.96315	65.019
0.001633	372.65	0.95942	68.737
0.001633	377.96	0.95556	72.534
0.001633	383.27	0.95158	76.421
0.001633	388.57	0.94747	80.406
0.001633	393.88	0.94324	84.501
0.001633	399.18	0.93888	88.715
0.001633	404.49	0.9344	93.06
0.001633	409.8	0.9298	97.545
0.001633	415.1	0.92507	102.19
0.001633	420.41	0.92022	106.99
0.001633	425.71	0.91524	111.98
0.001633	431.02	0.91014	117.17
0.001633	436.33	0.90491	122.57
0.001633	441.63	0.89954	128.2
0.001633	446.94	0.89404	134.09
0.001633	452.24	0.8884	140.25
0.001633	457.55	0.88261	146.71
0.001633	462.86	0.87668	153.51
0.001633	468.16	0.87059	160.67
0.001633	473.47	0.86434	168.21
0.001633	478.78	0.85792	176.2
0.001633	484.08	0.85132	184.68
0.001633	489.39	0.84454	193.7
0.001633	494.69	0.83756	203.3
0.001633	500	0.83036	213.51
0.0018934	240	0.9805	-81.496
0.0018934	245.31	0.98794	-60.128
0.0018934	250.61	0.99294	-43.44
0.0018934	255.92	0.99631	-30.381
0.0018934	261.22	0.99854	-20.315
0.0018934	266.53	0.99993	-12.234
0.0018934	271.84	1.0007	-5.4632
0.0018934	277.14	1.0009	0.39826
0.0018934	282.45	1.0006	5.5957
0.0018934	287.76	1	10.3
0.0018934	293.06	0.99904	14.647
0.0018934	298.37	0.9978	18.712
0.0018934	303.67	0.99629	22.588
0.0018934	308.98	0.99453	26.307
0.0018934	314.29	0.99256	29.92
0.0018934	319.59	0.99038	33.454
0.0018934	324.9	0.98801	36.937
0.0018934	330.2	0.98547	40.389
0.0018934	335.51	0.98275	43.829
0.0018934	340.82	0.97987	47.273
0.0018934	346.12	0.97684	50.734
0.0018934	351.43	0.97366	54.225
0.0018934	356.73	0.97033	57.757
0.0018934	362.04	0.96687	61.34
0.0018934	367.35	0.96327	64.983
0.0018934	372.65	0.95954	68.697
0.0018934	377.96	0.95569	72.49
0.0018934	383.27	0.95171	76.371
0.0018934	388.57	0.9476	80.352
0.0018934	393.88	0.94337	84.441
0.0018934	399.18	0.93901	88.65
0.0018934	404.49	0.93453	92.988
0.0018934	409.8	0.92994	97.467
0.0018934	415.1	0.92521	102.1
0.0018934	420.41	0.92037	106.9
0.0018934	425.71	0.91539	111.88
0.0018934	431.02	0.91029	117.06
0.0018934	436.33	0.90507	122.45
0.0018934	441.63	0.8997	128.07
0.0018934	446.94	0.89421	133.94
0.0018934	452.24	0.88857	140.09
0.0018934	457.55	0.88279	146.54
0.0018934	462.86	0.87686	153.32
0.0018934	468.16	0.87078	160.46
0.0018934	473.47	0.86454	167.99
0.0018934	478.78	0.85813	175.95
0.0018934	484.08	0.85154	184.4
0.0018934	489.39	0.84476	193.4
0.0018934	494.69	0.83779	202.97
0.0018934	500	0.83061	213.14
0.0021954	240	0.98077	-81.16
0.0021954	245.31	0.98816	-59.869
0.0021954	250.61	0.99314	-43.246
0.0021954	255.92	0.99649	-30.23
0.0021954	261.22	0.99871	-20.195
0.0021954	266.53	1.0001	-12.136
0.0021954	271.84	1.0008	-5.384
0.0021954	277.14	1.001	0.46238
0.0021954	282.45	1.0008	5.6476
0.0021954	287.76	1.0001	10.341
0.0021954	293.06	0.99918	14.679
0.0021954	298.37	0.99793	18.737
0.0021954	303.67	0.99642	22.606
0.0021954	308.98	0.99467	26.319
0.0021954	314.29	0.99269	29.926
0.0021954	319.59	0.99051	33.456
0.0021954	324.9	0.98815	36.933
0.0021954	330.2	0.9856	40.381
0.0021954	335.51	0.98288	43.816
0.0021954	340.82	0.98	47.256
0.0021954	346.12	0.97697	50.712
0.0021954	351.43	0.97379	54.198
0.0021954	356.73	0.97047	57.725
0.0021954	362.04	0.96701	61.304
0.0021954	367.35	0.96341	64.942
0.0021954	372.65	0.95969	68.651
0.0021954	377.96	0.95583	72.438
0.0021954	383.27	0.95185	76.314
0.0021954	388.57	0.94775	80.289
0.0021954	393.88	0.94352	84.372
0.0021954	399.18	0.93917	88.574
0.0021954	404.49	0.93469	92.905
0.0021954	409.8	0.9301	97.376
0.0021954	415.1	0.92538	102
0.0021954	420.41	0.92053	106.79
0.0021954	425.71	0.91557	111.76
0.0021954	431.02	0.91047	116.93
0.0021954	436.33	0.90525	122.31
0.0021954	441.63	0.89989	127.92
0.0021954	446.94	0.8944	133.78
0.0021954	452.24	0.88877	139.91
0.0021954	457.55	0.883	146.34
0.0021954	462.86	0.87708	153.1
0.0021954	468.16	0.871	160.22
0.0021954	473.47	0.86477	167.73
0.0021954	478.78	0.85837	175.66
0.0021954	484.08	0.85179	184.09
0.0021954	489.39	0.84503	193.05
0.0021954	494.69	0.83807	202.59
0.0021954	500	0.8309	212.72
0.0025455	240	0.98108	-80.771
0.0025455	245.31	0.98843	-59.57
0.0025455	250.61	0.99337	-43.02
0.0025455	255.92	0.99671	-30.054
0.0025455	261.22	0.99891	-20.055
0.0025455	266.53	1.0003	-12.024
0.0025455	271.84	1.001	-5.2924
0.0025455	277.14	1.0012	0.53659
0.0025455	282.45	1.0009	5.7077
0.0025455	287.76	1.0003	10.389
0.0025455	293.06	0.99934	14.717
0.0025455	298.37	0.99809	18.766
0.0025455	303.67	0.99658	22.627
0.0025455	308.98	0.99482	26.333
0.0025455	314.29	0.99285	29.934
0.0025455	319.59	0.99067	33.457
0.0025455	324.9	0.9883	36.929
0.0025455	330.2	0.98575	40.371
0.0025455	335.51	0.98303	43.801
0.0025455	340.82	0.98016	47.235
0.0025455	346.12	0.97712	50.687
0.0025455	351.43	0.97395	54.167
0.0025455	356.73	0.97062	57.689
0.0025455	362.04	0.96717	61.262
0.0025455	367.35	0.96357	64.895
0.0025455	372.65	0.95985	68.598
0.0025455	377.96	0.956	72.379
0.0025455	383.27	0.95202	76.248
0.0025455	388.57	0.94792	80.216
0.0025455	393.88	0.94369	84.292
0.0025455	399.18	0.93934	88.486
0.0025455	404.49	0.93487	92.809
0.0025455	409.8	0.93028	97.271
0.0025455	415.1	0.92557	101.89
0.0025455	420.41	0.92073	106.67
0.0025455	425.71	0.91577	111.62
0.0025455	431.02	0.91068	116.78
0.0025455	436.33	0.90546	122.14
0.0025455	441.63	0.90011	127.74
0.0025455	446.94	0.89463	133.59
0.0025455	452.24	0.889	139.7
0.0025455	457.55	0.88324	146.11
0.0025455	462.86	0.87733	152.86
0.0025455	468.16	0.87126	159.95
0.0025455	473.47	0.86504	167.43
0.0025455	478.78	0.85864	175.34
0.0025455	484.08	0.85208	183.73
0.0025455	489.39	0.84533	192.65
0.0025455	494.69	0.83838	202.14
0.0025455	500	0.83123	212.23
0.0029514	240	0.98144	-80.321
0.0029514	245.31	0.98873	-59.224
0.0029514	250.61	0.99364	-42.759
0.0029514	255.92	0.99695	-29.851
0.0029514	261.22	0.99914	-19.894
0.0029514	266.53	1.0005	-11.894
0.0029514	271.84	1.0012	-5.1864
0.0029514	277.14	1.0014	0.62246
0.0029514	282.45	1.0011	5.7772
0.0029514	287.76	1.0005	10.445
0.0029514	293.06	0.99953	14.761
0.0029514	298.37	0.99827	18.8
0.0029514	303.67	0.99676	22.652
0.0029514	308.98	0.995	26.35
0.0029514	314.29	0.99302	29.943
0.0029514	319.59	0.99084	33.459
0.0029514	324.9	0.98847	36.924
0.0029514	330.2	0.98593	40.36
0.0029514	335.51	0.98321	43.784
0.0029514	340.82	0.98033	47.212
0.0029514	346.12	0.9773	50.657
0.0029514	351.43	0.97413	54.132
0.0029514	356.73	0.97081	57.647
0.0029514	362.04	0.96735	61.214
0.0029514	367.35	0.96376	64.84
0.0029514	372.65	0.96004	68.536
0.0029514	377.96	0.95619	72.31
0.0029514	383.27	0.95221	76.172
0.0029514	388.57	0.94812	80.132
0.0029514	393.88	0.94389	84.199
0.0029514	399.18	0.93955	88.384
0.0029514	404.49	0.93508	92.698
0.0029514	409.8	0.9305	97.15
0.0029514	415.1	0.92579	101.75
0.0029514	420.41	0.92096	106.52
0.0029514	425.71	0.916	111.47
0.0029514	431.02	0.91092	116.61
0.0029514	436.33	0.9057	121.96
0.0029514	441.63	0.90036	127.54
0.0029514	446.94	0.89489	133.37
0.0029514	452.24	0.88927	139.46
0.0029514	457.55	0.88352	145.85
0.0029514	462.86	0.87761	152.57
0.0029514	468.16	0.87156	159.64
0.0029514	473.47	0.86534	167.08
0.0029514	478.78	0.85897	174.96
0.0029514	484.08	0.85241	183.31
0.0029514	489.39	0.84568	192.19
0.0029514	494.69	0.83875	201.63
0.0029514	500	0.83161	211.66
0.0034221	240	0.98185	-79.8
0.0034221	245.31	0.98908	-58.825
0.0034221	250.61	0.99396	-42.456
0.0034221	255.92	0.99724	-29.616
0.0034221	261.22	0.99941	-19.707
0.0034221	266.53	1.0007	-11.743
0.0034221	271.84	1.0014	-5.0638
0.0034221	277.14	1.0016	0.72179
0.0034221	282.45	1.0013	5.8577
0.0034221	287.76	1.0007	10.509
0.0034221	293.06	0.99974	14.811
0.0034221	298.37	0.99848	18.839
0.0034221	303.67	0.99696	22.68
0.0034221	308.98	0.9952	26.369
0.0034221	314.29	0.99323	29.953
0.0034221	319.59	0.99105	33.461
0.0034221	324.9	0.98868	36.919
0.0034221	330.2	0.98613	40.347
0.0034221	335.51	0.98341	43.764
0.0034221	340.82	0.98054	47.185
0.0034221	346.12	0.97751	50.623
0.0034221	351.43	0.97433	54.09
0.0034221	356.73	0.97102	57.599
0.0034221	362.04	0.96756	61.158
0.0034221	367.35	0.96397	64.777
0.0034221	372.65	0.96026	68.465
0.0034221	377.96	0.95641	72.231
0.0034221	383.27	0.95244	76.084
0.0034221	388.57	0.94834	80.035
0.0034221	393.88	0.94413	84.092
0.0034221	399.18	0.93979	88.267
0.0034221	404.49	0.93533	92.569
0.0034221	409.8	0.93075	97.01
0.0034221	415.1	0.92604	101.6
0.0034221	420.41	0.92122	106.36
0.0034221	425.71	0.91627	111.29
0.0034221	431.02	0.91119	116.41
0.0034221	436.33	0.90599	121.74
0.0034221	441.63	0.90065	127.3
0.0034221	446.94	0.89519	133.11
0.0034221	452.24	0.88958	139.18
0.0034221	457.55	0.88384	145.55
0.0034221	462.86	0.87794	152.24
0.0034221	468.16	0.8719	159.27
0.0034221	473.47	0.8657	166.69
0.0034221	478.78	0.85934	174.52
0.0034221	484.08	0.8528	182.83
0.0034221	489.39	0.84608	191.66
0.0034221	494.69	0.83917	201.05
0.0034221	500	0.83205	211.01
0.0039678	240	0.98233	-79.197
0.0039678	245.31	0.98949	-58.364
0.0039678	250.61	0.99432	-42.105
0.0039678	255.92	0.99757	-29.344
0.0039678	261.22	0.99972	-19.491
0.0039678	266.53	1.001	-11.569
0.0039678	271.84	1.0017	-4.9222
0.0039678	277.14	1.0019	0.83666
0.0039678	282.45	1.0016	5.9507
0.0039678	287.76	1.001	10.583
0.0039678	293.06	0.99999	14.87
0.0039678	298.37	0.99873	18.884
0.0039678	303.67	0.9972	22.713
0.0039678	308.98	0.99544	26.391
0.0039678	314.29	0.99347	29.965
0.0039678	319.59	0.99128	33.464
0.0039678	324.9	0.98891	36.913
0.0039678	330.2	0.98637	40.333
0.0039678	335.51	0.98365	43.741
0.0039678	340.82	0.98078	47.153
0.0039678	346.12	0.97775	50.583
0.0039678	351.43	0.97458	54.043
0.0039678	356.73	0.97126	57.543
0.0039678	362.04	0.96781	61.094
0.0039678	367.35	0.96422	64.704
0.0039678	372.65	0.96051	68.383
0.0039678	377.96	0.95667	72.139
0.0039678	383.27	0.9527	75.982
0.0039678	388.57	0.94861	79.922
0.0039678	393.88	0.9444	83.969
0.0039678	399.18	0.94007	88.132
0.0039678	404.49	0.93561	92.421
0.0039678	409.8	0.93104	96.849
0.0039678	415.1	0.92634	101.43
0.0039678	420.41	0.92152	106.16
0.0039678	425.71	0.91658	111.08
0.0039678	431.02	0.91151	116.18
0.0039678	436.33	0.90632	121.5
0.0039678	441.63	0.90099	127.03
0.0039678	446.94	0.89553	132.82
0.0039678	452.24	0.88994	138.86
0.0039678	457.55	0.88421	145.2
0.0039678	462.86	0.87833	151.86
0.0039678	468.16	0.8723	158.86
0.0039678	473.47	0.86611	166.23
0.0039678	478.78	0.85977	174.02
0.0039678	484.08	0.85325	182.28
0.0039678	489.39	0.84655	191.05
0.0039678	494.69	0.83965	200.37
0.0039678	500	0.83256	210.26
0.0046006	240	0.98288	-78.501
0.0046006	245.31	0.98996	-57.833
0.0046006	250.61	0.99474	-41.698
0.0046006	255.92	0.99796	-29.03
0.0046006	261.22	1.0001	-19.24
0.0046006	266.53	1.0014	-11.368
0.0046006	271.84	1.002	-4.7585
0.0046006	277.14	1.0022	0.96946
0.0046006	282.45	1.0019	6.0583
0.0046006	287.76	1.0013	10.67
0.0046006	293.06	1.0003	14.938
0.0046006	298.37	0.99901	18.936
0.0046006	303.67	0.99748	22.751
0.0046006	308.98	0.99572	26.417
0.0046006	314.29	0.99374	29.979
0.0046006	319.59	0.99156	33.467
0.0046006	324.9	0.98919	36.906
0.0046006	330.2	0.98664	40.316
0.0046006	335.51	0.98393	43.714
0.0046006	340.82	0.98105	47.117
0.0046006	346.12	0.97803	50.538
0.0046006	351.43	0.97486	53.988
0.0046006	356.73	0.97154	57.479
0.0046006	362.04	0.96809	61.02
0.0046006	367.35	0.96451	64.62
0.0046006	372.65	0.9608	68.289
0.0046006	377.96	0.95697	72.034
0.0046006	383.27	0.953	75.865
0.0046006	388.57	0.94892	79.793
0.0046006	393.88	0.94471	83.826
0.0046006	399.18	0.94039	87.976
0.0046006	404.49	0.93594	92.251
0.0046006	409.8	0.93137	96.662
0.0046006	415.1	0.92668	101.22
0.0046006	420.41	0.92187	105.94
0.0046006	425.71	0.91694	110.84
0.0046006	431.02	0.91188	115.92
0.0046006	436.33	0.90669	121.21
0.0046006	441.63	0.90138	126.72
0.0046006	446.94	0.89594	132.48
0.0046006	452.24	0.89036	138.5
0.0046006	457.55	0.88464	144.8
0.0046006	462.86	0.87877	151.42
0.0046006	468.16	0.87276	158.38
0.0046006	473.47	0.86659	165.7
0.0046006	478.78	0.86026	173.44
0.0046006	484.08	0.85376	181.65
0.0046006	489.39	0.84708	190.36
0.0046006	494.69	0.84022	199.6
0.0046006	500	0.83315	209.4
0.0053342	240	0.98352	-77.696
0.0053342	245.31	0.99051	-57.22
0.0053342	250.61	0.99522	-41.227
0.0053342	255.92	0.9984	-28.667
0.0053342	261.22	1.0005	-18.951
0.0053342	266.53	1.0018	-11.135
0.0053342	271.84	1.0024	-4.5694
0.0053342	277.14	1.0026	1.1229
0.0053342	282.45	1.0023	6.1827
0.0053342	287.76	1.0016	10.769
0.0053342	293.06	1.0006	15.016
0.0053342	298.37	0.99934	18.996
0.0053342	303.67	0.99781	22.795
0.0053342	308.98	0.99604	26.446
0.0053342	314.29	0.99406	29.995
0.0053342	319.59	0.99188	33.471
0.0053342	324.9	0.9895	36.898
0.0053342	330.2	0.98696	40.296
0.0053342	335.51	0.98424	43.684
0.0053342	340.82	0.98137	47.076
0.0053342	346.12	0.97835	50.486
0.0053342	351.43	0.97518	53.925
0.0053342	356.73	0.97187	57.404
0.0053342	362.04	0.96843	60.935
0.0053342	367.35	0.96485	64.523
0.0053342	372.65	0.96114	68.179
0.0053342	377.96	0.95731	71.912
0.0053342	383.27	0.95335	75.73
0.0053342	388.57	0.94927	79.643
0.0053342	393.88	0.94508	83.662
0.0053342	399.18	0.94076	87.796
0.0053342	404.49	0.93632	92.054
0.0053342	409.8	0.93176	96.448
0.0053342	415.1	0.92708	100.99
0.0053342	420.41	0.92227	105.69
0.0053342	425.71	0.91735	110.56
0.0053342	431.02	0.9123	115.62
0.0053342	436.33	0.90713	120.88
0.0053342	441.63	0.90183	126.37
0.0053342	446.94	0.8964	132.09
0.0053342	452.24	0.89083	138.07
0.0053342	457.55	0.88513	144.34
0.0053342	462.86	0.87928	150.91
0.0053342	468.16	0.87329	157.83
0.0053342	473.47	0.86714	165.1
0.0053342	478.78	0.86083	172.78
0.0053342	484.08	0.85436	180.92
0.0053342	489.39	0.8477	189.55
0.0053342	494.69	0.84086	198.72
0.0053342	500	0.83383	208.42
0.0061849	240	0.98425	-76.768
0.0061849	245.31	0.99114	-56.514
0.0061849	250.61	0.99578	-40.682
0.0061849	255.92	0.99891	-28.248
0.0061849	261.22	1.001	-18.617
0.0061849	266.53	1.0022	-10.867
0.0061849	271.84	1.0028	-4.351
0.0061849	277.14	1.003	1.3002
0.0061849	282.45	1.0027	6.3264
0.0061849	287.76	1.002	10.884
0.0061849	293.06	1.001	15.107
0.0061849	298.37	0.99972	19.066
0.0061849	303.67	0.99818	22.846
0.0061849	308.98	0.99641	26.481
0.0061849	314.29	0.99443	30.014
0.0061849	319.59	0.99224	33.475
0.0061849	324.9	0.98987	36.889
0.0061849	330.2	0.98732	40.274
0.0061849	335.51	0.98461	43.649
0.0061849	340.82	0.98174	47.028
0.0061849	346.12	0.97872	50.425
0.0061849	351.43	0.97555	53.852
0.0061849	356.73	0.97225	57.319
0.0061849	362.04	0.96881	60.836
0.0061849	367.35	0.96524	64.412
0.0061849	372.65	0.96153	68.054
0.0061849	377.96	0.95771	71.772
0.0061849	383.27	0.95376	75.574
0.0061849	388.57	0.94969	79.472
0.0061849	393.88	0.94549	83.473
0.0061849	399.18	0.94118	87.589
0.0061849	404.49	0.93675	91.828
0.0061849	409.8	0.9322	96.201
0.0061849	415.1	0.92753	100.72
0.0061849	420.41	0.92274	105.39
0.0061849	425.71	0.91783	110.24
0.0061849	431.02	0.9128	115.27
0.0061849	436.33	0.90764	120.51
0.0061849	441.63	0.90235	125.96
0.0061849	446.94	0.89694	131.64
0.0061849	452.24	0.89139	137.59
0.0061849	457.55	0.8857	143.81
0.0061849	462.86	0.87987	150.34
0.0061849	468.16	0.8739	157.19
0.0061849	473.47	0.86778	164.41
0.0061849	478.78	0.86149	172.02
0.0061849	484.08	0.85504	180.09
0.0061849	489.39	0.84842	188.64
0.0061849	494.69	0.84161	197.7
0.0061849	500	0.83461	207.29
0.0071712	240	0.9851	-75.698
0.0071712	245.31	0.99187	-55.7
0.0071712	250.61	0.99643	-40.052
0.0071712	255.92	0.99951	-27.765
0.0071712	261.22	1.0015	-18.23
0.0071712	266.53	1.0027	-10.557
0.0071712	271.84	1.0033	-4.099
0.0071712	277.14	1.0034	1.5049
0.0071712	282.45	1.0031	6.4923
0.0071712	287.76	1.0024	11.018
0.0071712	293.06	1.0014	15.212
0.0071712	298.37	1.0002	19.147
0.0071712	303.67	0.99861	22.905
0.0071712	308.98	0.99684	26.52
0.0071712	314.29	0.99485	30.036
0.0071712	319.59	0.99267	33.481
0.0071712	324.9	0.9903	36.879
0.0071712	330.2	0.98775	40.249
0.0071712	335.51	0.98504	43.609
0.0071712	340.82	0.98217	46.973
0.0071712	346.12	0.97915	50.356
0.0071712	351.43	0.97599	53.768
0.0071712	356.73	0.97269	57.221
0.0071712	362.04	0.96925	60.723
0.0071712	367.35	0.96568	64.283
0.0071712	372.65	0.96199	67.909
0.0071712	377.96	0.95817	71.61
0.0071712	383.27	0.95423	75.395
0.0071712	388.57	0.95016	79.274
0.0071712	393.88	0.94598	83.256
0.0071712	399.18	0.94168	87.351
0.0071712	404.49	0.93726	91.568
0.0071712	409.8	0.93272	95.917
0.0071712	415.1	0.92806	100.41
0.0071712	420.41	0.92328	105.06
0.0071712	425.71	0.91839	109.87
0.0071712	431.02	0.91337	114.87
0.0071712	436.33	0.90822	120.07
0.0071712	441.63	0.90295	125.49
0.0071712	446.94	0.89756	131.13
0.0071712	452.24	0.89203	137.03
0.0071712	457.55	0.88636	143.2
0.0071712	462.86	0.88056	149.67
0.0071712	468.16	0.87461	156.47
0.0071712	473.47	0.86851	163.62
0.0071712	478.78	0.86225	171.15
0.0071712	484.08	0.85583	179.13
0.0071712	489.39	0.84924	187.59
0.0071712	494.69	0.84247	196.55
0.0071712	500	0.83551	206.01
0.0083148	240	0.98608	-74.465
0.0083148	245.31	0.99271	-54.764
0.0083148	250.61	0.99718	-39.325
0.0083148	255.92	1.0002	-27.207
0.0083148	261.22	1.0022	-17.784
0.0083148	266.53	1.0033	-10.199
0.0083148	271.84	1.0039	-3.8081
0.0083148	277.14	1.004	1.7411
0.0083148	282.45	1.0037	6.6838
0.0083148	287.76	1.003	11.171
0.0083148	293.06	1.002	15.333
0.0083148	298.37	1.0007	19.24
0.0083148	303.67	0.99912	22.974
0.0083148	308.98	0.99734	26.567
0.0083148	314.29	0.99535	30.061
0.0083148	319.59	0.99316	33.487
0.0083148	324.9	0.99079	36.867
0.0083148	330.2	0.98824	40.22
0.0083148	335.51	0.98553	43.562
0.0083148	340.82	0.98266	46.911
0.0083148	346.12	0.97965	50.277
0.0083148	351.43	0.97649	53.672
0.0083148	356.73	0.97319	57.108
0.0083148	362.04	0.96976	60.593
0.0083148	367.35	0.9662	64.136
0.0083148	372.65	0.96251	67.743
0.0083148	377.96	0.9587	71.425
0.0083148	383.27	0.95477	75.19
0.0083148	388.57	0.95071	79.047
0.0083148	393.88	0.94654	83.006
0.0083148	399.18	0.94225	87.077
0.0083148	404.49	0.93784	91.269
0.0083148	409.8	0.93331	95.591
0.0083148	415.1	0.92867	100.05
0.0083148	420.41	0.92391	104.67
0.0083148	425.71	0.91903	109.45
0.0083148	431.02	0.91402	114.42
0.0083148	436.33	0.9089	119.58
0.0083148	441.63	0.90365	124.95
0.0083148	446.94	0.89827	130.55
0.0083148	452.24	0.89276	136.39
0.0083148	457.55	0.88712	142.5
0.0083148	462.86	0.88134	148.92
0.0083148	468.16	0.87542	155.64
0.0083148	473.47	0.86935	162.71
0.0083148	478.78	0.86313	170.17
0.0083148	484.08	0.85674	178.05
0.0083148	489.39	0.85019	186.4
0.0083148	494.69	0.84346	195.23
0.0083148	500	0.83654	204.55
0.0096408	240	0.9872	-73.047
0.0096408	245.31	0.99367	-53.688
0.0096408	250.61	0.99805	-38.489
0.0096408	255.92	1.001	-26.564
0.0096408	261.22	1.0029	-17.27
0.0096408	266.53	1.004	-9.7867
0.0096408	271.84	1.0046	-3.4727
0.0096408	277.14	1.0046	2.0135
0.0096408	282.45	1.0043	6.9046
0.0096408	287.76	1.0036	11.349
0.0096408	293.06	1.0026	15.472
0.0096408	298.37	1.0012	19.348
0.0096408	303.67	0.99969	23.053
0.0096408	308.98	0.99791	26.62
0.0096408	314.29	0.99592	30.091
0.0096408	319.59	0.99373	33.495
0.0096408	324.9	0.99135	36.854
0.0096408	330.2	0.98881	40.187
0.0096408	335.51	0.9861	43.51
0.0096408	340.82	0.98324	46.839
0.0096408	346.12	0.98022	50.185
0.0096408	351.43	0.97707	53.562
0.0096408	356.73	0.97378	56.978
0.0096408	362.04	0.97035	60.444
0.0096408	367.35	0.9668	63.966
0.0096408	372.65	0.96312	67.553
0.0096408	377.96	0.95932	71.212
0.0096408	383.27	0.95539	74.954
0.0096408	388.57	0.95135	78.786
0.0096408	393.88	0.94719	82.72
0.0096408	399.18	0.94291	86.764
0.0096408	404.49	0.93851	90.926
0.0096408	409.8	0.934	95.218
0.0096408	415.1	0.92937	99.648
0.0096408	420.41	0.92463	104.23
0.0096408	425.71	0.91976	108.97
0.0096408	431.02	0.91478	113.89
0.0096408	436.33	0.90968	119.01
0.0096408	441.63	0.90445	124.33
0.0096408	446.94	0.89909	129.88
0.0096408	452.24	0.89361	135.66
0.0096408	457.55	0.888	141.71
0.0096408	462.86	0.88225	148.05
0.0096408	468.16	0.87636	154.7
0.0096408	473.47	0.87032	161.68
0.0096408	478.78	0.86413	169.04
0.0096408	484.08	0.85779	176.81
0.0096408	489.39	0.85127	185.04
0.0096408	494.69	0.84459	193.73
0.0096408	500	0.83772	202.9
0.011178	240	0.98849	-71.42
0.011178	245.31	0.99479	-52.451
0.011178	250.61	0.99904	-37.528
0.011178	255.92	1.0019	-25.822
0.011178	261.22	1.0038	-16.678
0.011178	266.53	1.0049	-9.3108
0.011178	271.84	1.0054	-3.086
0.011178	277.14	1.0054	2.3275
0.011178	282.45	1.005	7.159
0.011178	287.76	1.0043	11.553
0.011178	293.06	1.0032	15.633
0.011178	298.37	1.0019	19.472
0.011178	303.67	1.0004	23.144
0.011178	308.98	0.99857	26.682
0.011178	314.29	0.99658	30.125
0.011178	319.59	0.99438	33.504
0.011178	324.9	0.99201	36.839
0.011178	330.2	0.98946	40.149
0.011178	335.51	0.98676	43.45
0.011178	340.82	0.9839	46.756
0.011178	346.12	0.98089	50.081
0.011178	351.43	0.97774	53.435
0.011178	356.73	0.97445	56.829
0.011178	362.04	0.97104	60.273
0.011178	367.35	0.96749	63.772
0.011178	372.65	0.96382	67.334
0.011178	377.96	0.96003	70.968
0.011178	383.27	0.95611	74.683
0.011178	388.57	0.95208	78.488
0.011178	393.88	0.94793	82.392
0.011178	399.18	0.94367	86.405
0.011178	404.49	0.93929	90.534
0.011178	409.8	0.93479	94.791
0.011178	415.1	0.93018	99.183
0.011178	420.41	0.92546	103.72
0.011178	425.71	0.92061	108.42
0.011178	431.02	0.91565	113.3
0.011178	436.33	0.91057	118.36
0.011178	441.63	0.90537	123.62
0.011178	446.94	0.90004	129.11
0.011178	452.24	0.89459	134.83
0.011178	457.55	0.889	140.81
0.011178	462.86	0.88329	147.07
0.011178	468.16	0.87743	153.63
0.011178	473.47	0.87143	160.51
0.011178	478.78	0.86529	167.76
0.011178	484.08	0.85899	175.41
0.011178	489.39	0.85252	183.5
0.011178	494.69	0.84589	192.04
0.011178	500	0.83908	201.03
0.012961	240	0.98998	-69.558
0.012961	245.31	0.99607	-51.03
0.012961	250.61	1.0002	-36.427
0.012961	255.92	1.003	-24.968
0.012961	261.22	1.0047	-15.997
0.012961	266.53	1.0058	-8.7626
0.012961	271.84	1.0063	-2.6406
0.012961	277.14	1.0063	2.6892
0.012961	282.45	1.0058	7.452
0.012961	287.76	1.0051	11.788
0.012961	293.06	1.004	15.819
0.012961	298.37	1.0027	19.615
0.012961	303.67	1.0011	23.249
0.012961	308.98	0.99934	26.753
0.012961	314.29	0.99734	30.166
0.012961	319.59	0.99514	33.515
0.012961	324.9	0.99277	36.823
0.012961	330.2	0.99022	40.107
0.012961	335.51	0.98752	43.381
0.012961	340.82	0.98466	46.663
0.012961	346.12	0.98166	49.962
0.012961	351.43	0.97851	53.291
0.012961	356.73	0.97523	56.66
0.012961	362.04	0.97183	60.077
0.012961	367.35	0.96829	63.55
0.012961	372.65	0.96463	67.084
0.012961	377.96	0.96085	70.69
0.012961	383.27	0.95695	74.374
0.012961	388.57	0.95293	78.147
0.012961	393.88	0.9488	82.017
0.012961	399.18	0.94455	85.995
0.012961	404.49	0.94019	90.087
0.012961	409.8	0.93571	94.303
0.012961	415.1	0.93112	98.652
0.012961	420.41	0.92641	103.15
0.012961	425.71	0.92159	107.8
0.012961	431.02	0.91666	112.62
0.012961	436.33	0.9116	117.62
0.012961	441.63	0.90643	122.82
0.012961	446.94	0.90113	128.24
0.012961	452.24	0.89571	133.89
0.012961	457.55	0.89016	139.78
0.012961	462.86	0.88448	145.95
0.012961	468.16	0.87867	152.41
0.012961	473.47	0.87271	159.18
0.012961	478.78	0.86661	166.31
0.012961	484.08	0.86036	173.83
0.012961	489.39	0.85395	181.76
0.012961	494.69	0.84738	190.13
0.012961	500	0.84063	198.92
0.015028	240	0.99168	-67.431
0.015028	245.31	0.99755	-49.401
0.015028	250.61	1.0015	-35.167
0.015028	255.92	1.0042	-23.986
0.015028	261.22	1.0059	-15.215
0.015028	266.53	1.0069	-8.1319
0.015028	271.84	1.0073	-2.1284
0.015028	277.14	1.0072	3.1051
0.015028	282.45	1.0068	7.7888
0.015028	287.76	1.006	12.058
0.015028	293.06	1.005	16.032
0.015028	298.37	1.0036	19.78
0.015028	303.67	1.002	23.371
0.015028	308.98	1.0002	26.836
0.015028	314.29	0.99822	30.212
0.015028	319.59	0.99602	33.529
0.015028	324.9	0.99364	36.806
0.015028	330.2	0.9911	40.059
0.015028	335.51	0.98839	43.304
0.015028	340.82	0.98554	46.556
0.015028	346.12	0.98254	49.827
0.015028	351.43	0.9794	53.126
0.015028	356.73	0.97613	56.466
0.015028	362.04	0.97273	59.854
0.015028	367.35	0.96921	63.296
0.015028	372.65	0.96556	66.799
0.015028	377.96	0.96179	70.371
0.015028	383.27	0.95791	74.022
0.015028	388.57	0.95391	77.758
0.015028	393.88	0.94979	81.59
0.015028	399.18	0.94556	85.527
0.015028	404.49	0.94122	89.576
0.015028	409.8	0.93676	93.747
0.015028	415.1	0.9322	98.047
0.015028	420.41	0.92751	102.49
0.015028	425.71	0.92272	107.08
0.015028	431.02	0.91781	111.84
0.015028	436.33	0.91279	116.78
0.015028	441.63	0.90765	121.91
0.015028	446.94	0.90239	127.25
0.015028	452.24	0.897	132.81
0.015028	457.55	0.89149	138.62
0.015028	462.86	0.88585	144.69
0.015028	468.16	0.88008	151.04
0.015028	473.47	0.87418	157.68
0.015028	478.78	0.86813	164.67
0.015028	484.08	0.86194	172.04
0.015028	489.39	0.85559	179.8
0.015028	494.69	0.84908	187.98
0.015028	500	0.84241	196.56
0.017424	240	0.99363	-65.008
0.017424	245.31	0.99925	-47.539
0.017424	250.61	1.003	-33.723
0.017424	255.92	1.0056	-22.86
0.017424	261.22	1.0072	-14.318
0.017424	266.53	1.0081	-7.4079
0.017424	271.84	1.0085	-1.5405
0.017424	277.14	1.0084	3.5827
0.017424	282.45	1.0079	8.1755
0.017424	287.76	1.0071	12.368
0.017424	293.06	1.006	16.277
0.017424	298.37	1.0047	19.969
0.017424	303.67	1.0031	23.51
0.017424	308.98	1.0012	26.931
0.017424	314.29	0.99923	30.267
0.017424	319.59	0.99703	33.545
0.017424	324.9	0.99465	36.786
0.017424	330.2	0.99211	40.004
0.017424	335.51	0.98941	43.216
0.017424	340.82	0.98656	46.435
0.017424	346.12	0.98356	49.672
0.017424	351.43	0.98043	52.939
0.017424	356.73	0.97717	56.245
0.017424	362.04	0.97378	59.599
0.017424	367.35	0.97027	63.007
0.017424	372.65	0.96664	66.474
0.017424	377.96	0.96288	70.009
0.017424	383.27	0.95901	73.62
0.017424	388.57	0.95503	77.316
0.017424	393.88	0.95093	81.104
0.017424	399.18	0.94672	84.995
0.017424	404.49	0.9424	88.996
0.017424	409.8	0.93797	93.115
0.017424	415.1	0.93343	97.361
0.017424	420.41	0.92878	101.74
0.017424	425.71	0.92402	106.27
0.017424	431.02	0.91914	110.97
0.017424	436.33	0.91415	115.83
0.017424	441.63	0.90905	120.88
0.017424	446.94	0.90382	126.13
0.017424	452.24	0.89848	131.6
0.017424	457.55	0.89302	137.3
0.017424	462.86	0.88743	143.26
0.017424	468.16	0.88171	149.48
0.017424	473.47	0.87586	156
0.017424	478.78	0.86987	162.84
0.017424	484.08	0.86374	170.03
0.017424	489.39	0.85746	177.61
0.017424	494.69	0.85102	185.57
0.017424	500	0.84443	193.92
0.020203	240	0.99586	-62.251
0.020203	245.31	1.0012	-45.417
0.020203	250.61	1.0048	-32.07
0.020203	255.92	1.0072	-21.573
0.020203	261.22	1.0087	-13.29
0.020203	266.53	1.0095	-6.579
0.020203	271.84	1.0098	-0.86748
0.020203	277.14	1.0097	4.1299
0.020203	282.45	1.0092	8.6186
0.020203	287.76	1.0084	12.724
0.020203	293.06	1.0072	16.558
0.020203	298.37	1.0059	20.186
0.020203	303.67	1.0043	23.671
0.020203	308.98	1.0024	27.041
0.020203	314.29	1.0004	30.33
0.020203	319.59	0.9982	33.565
0.020203	324.9	0.99581	36.765
0.020203	330.2	0.99327	39.944
0.020203	335.51	0.99057	43.117
0.020203	340.82	0.98773	46.298
0.020203	346.12	0.98474	49.498
0.020203	351.43	0.98162	52.727
0.020203	356.73	0.97837	55.995
0.020203	362.04	0.97499	59.311
0.020203	367.35	0.97149	62.679
0.020203	372.65	0.96787	66.105
0.020203	377.96	0.96414	69.598
0.020203	383.27	0.96029	73.165
0.020203	388.57	0.95632	76.814
0.020203	393.88	0.95225	80.553
0.020203	399.18	0.94806	84.393
0.020203	404.49	0.94377	88.339
0.020203	409.8	0.93937	92.4
0.020203	415.1	0.93485	96.583
0.020203	420.41	0.93023	100.9
0.020203	425.71	0.9255	105.36
0.020203	431.02	0.92066	109.97
0.020203	436.33	0.91571	114.76
0.020203	441.63	0.91065	119.72
0.020203	446.94	0.90547	124.87
0.020203	452.24	0.90018	130.24
0.020203	457.55	0.89476	135.82
0.020203	462.86	0.88922	141.66
0.020203	468.16	0.88356	147.74
0.020203	473.47	0.87777	154.1
0.020203	478.78	0.87185	160.78
0.020203	484.08	0.86579	167.79
0.020203	489.39	0.85959	175.16
0.020203	494.69	0.85323	182.89
0.020203	500	0.84673	190.98
0.023425	240	0.99841	-59.124
0.023425	245.31	1.0034	-43.004
0.023425	250.61	1.0068	-30.186
0.023425	255.92	1.009	-20.103
0.023425	261.22	1.0104	-12.116
0.023425	266.53	1.0112	-5.6315
0.023425	271.84	1.0114	-0.098112
0.023425	277.14	1.0112	4.7555
0.023425	282.45	1.0107	9.1252
0.023425	287.76	1.0098	13.131
0.023425	293.06	1.0087	16.879
0.023425	298.37	1.0073	20.435
0.023425	303.67	1.0056	23.856
0.023425	308.98	1.0038	27.168
0.023425	314.29	1.0018	30.404
0.023425	319.59	0.99954	33.589
0.023425	324.9	0.99715	36.742
0.023425	330.2	0.99461	39.876
0.023425	335.51	0.99191	43.005
0.023425	340.82	0.98907	46.143
0.023425	346.12	0.9861	49.301
0.023425	351.43	0.98299	52.487
0.023425	356.73	0.97975	55.712
0.023425	362.04	0.97638	58.984
0.023425	367.35	0.9729	62.308
0.023425	372.65	0.96929	65.688
0.023425	377.96	0.96558	69.132
0.023425	383.27	0.96175	72.649
0.023425	388.57	0.95781	76.246
0.023425	393.88	0.95376	79.93
0.023425	399.18	0.9496	83.712
0.023425	404.49	0.94534	87.596
0.023425	409.8	0.94096	91.592
0.023425	415.1	0.93649	95.706
0.023425	420.41	0.9319	99.948
0.023425	425.71	0.92721	104.33
0.023425	431.02	0.92241	108.86
0.023425	436.33	0.9175	113.55
0.023425	441.63	0.91248	118.41
0.023425	446.94	0.90736	123.46
0.023425	452.24	0.90211	128.7
0.023425	457.55	0.89675	134.16
0.023425	462.86	0.89128	139.86
0.023425	468.16	0.88568	145.8
0.023425	473.47	0.87996	151.99
0.023425	478.78	0.87411	158.48
0.023425	484.08	0.86813	165.29
0.023425	489.39	0.86201	172.44
0.023425	494.69	0.85575	179.92
0.023425	500	0.84934	187.73
0.02716	240	1.0013	-55.593
0.02716	245.31	1.006	-40.266
0.02716	250.61	1.0091	-28.054
0.02716	255.92	1.0112	-18.428
0.02716	261.22	1.0124	-10.78
0.02716	266.53	1.0131	-4.551
0.02716	271.84	1.0132	0.77944
0.02716	277.14	1.013	5.4688
0.02716	282.45	1.0124	9.7026
0.02716	287.76	1.0115	13.595
0.02716	293.06	1.0103	17.246
0.02716	298.37	1.0089	20.719
0.02716	303.67	1.0072	24.068
0.02716	308.98	1.0053	27.315
0.02716	314.29	1.0033	30.489
0.02716	319.59	1.0011	33.619
0.02716	324.9	0.9987	36.718
0.02716	330.2	0.99615	39.801
0.02716	335.51	0.99346	42.88
0.02716	340.82	0.99063	45.969
0.02716	346.12	0.98766	49.079
0.02716	351.43	0.98456	52.217
0.02716	356.73	0.98133	55.393
0.02716	362.04	0.97798	58.615
0.02716	367.35	0.97451	61.888
0.02716	372.65	0.97093	65.216
0.02716	377.96	0.96723	68.607
0.02716	383.27	0.96343	72.068
0.02716	388.57	0.95951	75.606
0.02716	393.88	0.95549	79.229
0.02716	399.18	0.95136	82.945
0.02716	404.49	0.94713	86.76
0.02716	409.8	0.9428	90.683
0.02716	415.1	0.93836	94.72
0.02716	420.41	0.93381	98.879
0.02716	425.71	0.92916	103.17
0.02716	431.02	0.92441	107.61
0.02716	436.33	0.91955	112.19
0.02716	441.63	0.91458	116.95
0.02716	446.94	0.90951	121.88
0.02716	452.24	0.90432	126.99
0.02716	457.55	0.89903	132.31
0.02716	462.86	0.89362	137.86
0.02716	468.16	0.88809	143.63
0.02716	473.47	0.88245	149.64
0.02716	478.78	0.87668	155.94
0.02716	484.08	0.87078	162.53
0.02716	489.39	0.86475	169.43
0.02716	494.69	0.85859	176.65
0.02716	500	0.85229	184.16
0.031491	240	1.0046	-51.623
0.031491	245.31	1.0089	-37.179
0.031491	250.61	1.0118	-25.639
0.031491	255.92	1.0136	-16.531
0.031491	261.22	1.0147	-9.2646
0.031491	266.53	1.0153	-3.3251
0.031491	271.84	1.0153	1.7753
0.031491	277.14	1.015	6.2787
0.031491	282.45	1.0143	10.358
0.031491	287.76	1.0134	14.122
0.031491	293.06	1.0121	17.662
0.031491	298.37	1.0107	21.043
0.031491	303.67	1.009	24.31
0.031491	308.98	1.0071	27.483
0.031491	314.29	1.0051	30.589
0.031491	319.59	1.0029	33.654
0.031491	324.9	1.0005	36.693
0.031491	330.2	0.99793	39.718
0.031491	335.51	0.99524	42.741
0.031491	340.82	0.99241	45.775
0.031491	346.12	0.98945	48.83
0.031491	351.43	0.98636	51.913
0.031491	356.73	0.98315	55.034
0.031491	362.04	0.97981	58.201
0.031491	367.35	0.97637	61.417
0.031491	372.65	0.97281	64.687
0.031491	377.96	0.96913	68.017
0.031491	383.27	0.96535	71.415
0.031491	388.57	0.96147	74.887
0.031491	393.88	0.95748	78.441
0.031491	399.18	0.95339	82.084
0.031491	404.49	0.94919	85.824
0.031491	409.8	0.94489	89.665
0.031491	415.1	0.94049	93.616
0.031491	420.41	0.93599	97.684
0.031491	425.71	0.93139	101.88
0.031491	431.02	0.92669	106.21
0.031491	436.33	0.92188	110.68
0.031491	441.63	0.91697	115.32
0.031491	446.94	0.91196	120.12
0.031491	452.24	0.90684	125.09
0.031491	457.55	0.90162	130.26
0.031491	462.86	0.89628	135.64
0.031491	468.16	0.89083	141.23
0.031491	473.47	0.88527	147.05
0.031491	478.78	0.87959	153.13
0.031491	484.08	0.87379	159.49
0.031491	489.39	0.86786	166.13
0.031491	494.69	0.86181	173.06
0.031491	500	0.85563	180.26
0.036513	240	1.0083	-47.184
0.036513	245.31	1.0122	-33.714
0.036513	250.61	1.0148	-22.925
0.036513	255.92	1.0164	-14.393
0.036513	261.22	1.0174	-7.5546
0.036513	266.53	1.0178	-1.9404
0.036513	271.84	1.0177	2.9007
0.036513	277.14	1.0173	7.1941
0.036513	282.45	1.0166	11.1
0.036513	287.76	1.0156	14.718
0.036513	293.06	1.0143	18.135
0.036513	298.37	1.0128	21.411
0.036513	303.67	1.0111	24.586
0.036513	308.98	1.0092	27.676
0.036513	314.29	1.0071	30.705
0.036513	319.59	1.0049	33.697
0.036513	324.9	1.0025	36.668
0.036513	330.2	0.99996	39.626
0.036513	335.51	0.99728	42.586
0.036513	340.82	0.99445	45.558
0.036513	346.12	0.9915	48.552
0.036513	351.43	0.98843	51.574
0.036513	356.73	0.98523	54.633
0.036513	362.04	0.98192	57.737
0.036513	367.35	0.97849	60.889
0.036513	372.65	0.97495	64.093
0.036513	377.96	0.97131	67.356
0.036513	383.27	0.96756	70.684
0.036513	388.57	0.96371	74.084
0.036513	393.88	0.95975	77.561
0.036513	399.18	0.9557	81.124
0.036513	404.49	0.95154	84.779
0.036513	409.8	0.94729	88.53
0.036513	415.1	0.94293	92.386
0.036513	420.41	0.93848	96.353
0.036513	425.71	0.93393	100.44
0.036513	431.02	0.92929	104.66
0.036513	436.33	0.92454	109.01
0.036513	441.63	0.9197	113.51
0.036513	446.94	0.91475	118.17
0.036513	452.24	0.9097	122.99
0.036513	457.55	0.90455	127.99
0.036513	462.86	0.8993	133.19
0.036513	468.16	0.89394	138.59
0.036513	473.47	0.88846	144.2
0.036513	478.78	0.88288	150.05
0.036513	484.08	0.87719	156.16
0.036513	489.39	0.87137	162.53
0.036513	494.69	0.86544	169.15
0.036513	500	0.85938	176.02
0.042336	240	1.0125	-42.261
0.042336	245.31	1.016	-29.857
0.042336	250.61	1.0182	-19.896
0.042336	255.92	1.0196	-12.001
0.042336	261.22	1.0204	-5.6388
0.042336	266.53	1.0206	-0.38767
0.042336	271.84	1.0204	4.1636
0.042336	277.14	1.0199	8.2222
0.042336	282.45	1.0191	11.934
0.042336	287.76	1.0181	15.388
0.042336	293.06	1.0168	18.667
0.042336	298.37	1.0152	21.826
0.042336	303.67	1.0135	24.9
0.042336	308.98	1.0116	27.897
0.042336	314.29	1.0095	30.839
0.042336	319.59	1.0072	33.749
0.042336	324.9	1.0048	36.642
0.042336	330.2	1.0023	39.527
0.042336	335.51	0.99961	42.415
0.042336	340.82	0.9968	45.318
0.042336	346.12	0.99386	48.243
0.042336	351.43	0.9908	51.197
0.042336	356.73	0.98762	54.187
0.042336	362.04	0.98432	57.22
0.042336	367.35	0.98092	60.301
0.042336	372.65	0.97741	63.433
0.042336	377.96	0.9738	66.621
0.042336	383.27	0.97008	69.872
0.042336	388.57	0.96626	73.19
0.042336	393.88	0.96235	76.583
0.042336	399.18	0.95833	80.057
0.042336	404.49	0.95422	83.618
0.042336	409.8	0.95002	87.271
0.042336	415.1	0.94571	91.023
0.042336	420.41	0.94132	94.879
0.042336	425.71	0.93683	98.848
0.042336	431.02	0.93224	102.94
0.042336	436.33	0.92756	107.16
0.042336	441.63	0.92279	111.51
0.042336	446.94	0.91792	116.02
0.042336	452.24	0.91295	120.68
0.042336	457.55	0.90788	125.5
0.042336	462.86	0.90271	130.51
0.042336	468.16	0.89745	135.7
0.042336	473.47	0.89207	141.08
0.042336	478.78	0.8866	146.69
0.042336	484.08	0.88101	152.54
0.042336	489.39	0.87532	158.62
0.042336	494.69	0.86951	164.93
0.042336	500	0.86359	171.46
0.049088	240	1.0173	-36.855
0.049088	245.31	1.0202	-25.606
0.049088	250.61	1.0221	-16.551
0.049088	255.92	1.0232	-9.3506
0.049088	261.22	1.0238	-3.5132
0.049088	266.53	1.0239	1.3377
0.049088	271.84	1.0236	5.5686
0.049088	277.14	1.023	9.3676
0.049088	282.45	1.0221	12.864
0.049088	287.76	1.0209	16.139
0.049088	293.06	1.0196	19.264
0.049088	298.37	1.018	22.294
0.049088	303.67	1.0162	25.254
0.049088	308.98	1.0143	28.148
0.049088	314.29	1.0122	30.993
0.049088	319.59	1.0099	33.811
0.049088	324.9	1.0075	36.617
0.049088	330.2	1.005	39.418
0.049088	335.51	1.0023	42.227
0.049088	340.82	0.99948	45.053
0.049088	346.12	0.99655	47.902
0.049088	351.43	0.99351	50.78
0.049088	356.73	0.99035	53.693
0.049088	362.04	0.98708	56.648
0.049088	367.35	0.9837	59.65
0.049088	372.65	0.98022	62.7
0.049088	377.96	0.97664	65.806
0.049088	383.27	0.97296	68.971
0.049088	388.57	0.96918	72.202
0.049088	393.88	0.9653	75.502
0.049088	399.18	0.96134	78.878
0.049088	404.49	0.95727	82.337
0.049088	409.8	0.95312	85.882
0.049088	415.1	0.94888	89.519
0.049088	420.41	0.94454	93.255
0.049088	425.71	0.94012	97.097
0.049088	431.02	0.9356	101.05
0.049088	436.33	0.93099	105.13
0.049088	441.63	0.92629	109.33
0.049088	446.94	0.9215	113.67
0.049088	452.24	0.91662	118.15
0.049088	457.55	0.91164	122.79
0.049088	462.86	0.90657	127.59
0.049088	468.16	0.9014	132.56
0.049088	473.47	0.89614	137.7
0.049088	478.78	0.89078	143.06
0.049088	484.08	0.88531	148.63
0.049088	489.39	0.87975	154.4
0.049088	494.69	0.87408	160.39
0.049088	500	0.8683	166.56
0.056916	240	1.0226	-30.998
0.056916	245.31	1.025	-20.983
0.056916	250.61	1.0265	-12.901
0.056916	255.92	1.0273	-6.4506
0.056916	261.22	1.0277	-1.1826
0.056916	266.53	1.0276	3.2325
0.056916	271.84	1.0271	7.1145
0.056916	277.14	1.0264	10.631
0.056916	282.45	1.0254	13.894
0.056916	287.76	1.0242	16.971
0.056916	293.06	1.0228	19.929
0.056916	298.37	1.0212	22.816
0.056916	303.67	1.0194	25.652
0.056916	308.98	1.0174	28.431
0.056916	314.29	1.0153	31.169
0.056916	319.59	1.013	33.884
0.056916	324.9	1.0106	36.593
0.056916	330.2	1.008	39.302
0.056916	335.51	1.0053	42.021
0.056916	340.82	1.0025	44.761
0.056916	346.12	0.99963	47.527
0.056916	351.43	0.9966	50.32
0.056916	356.73	0.99346	53.148
0.056916	362.04	0.99021	56.017
0.056916	367.35	0.98687	58.932
0.056916	372.65	0.98342	61.894
0.056916	377.96	0.97987	64.908
0.056916	383.27	0.97623	67.98
0.056916	388.57	0.97249	71.113
0.056916	393.88	0.96867	74.312
0.056916	399.18	0.96475	77.582
0.056916	404.49	0.96074	80.929
0.056916	409.8	0.95665	84.358
0.056916	415.1	0.95246	87.872
0.056916	420.41	0.94819	91.478
0.056916	425.71	0.94384	95.182
0.056916	431.02	0.93939	98.991
0.056916	436.33	0.93487	102.91
0.056916	441.63	0.93025	106.95
0.056916	446.94	0.92555	111.11
0.056916	452.24	0.92076	115.41
0.056916	457.55	0.91588	119.84
0.056916	462.86	0.91091	124.43
0.056916	468.16	0.90585	129.16
0.056916	473.47	0.9007	134.06
0.056916	478.78	0.89546	139.15
0.056916	484.08	0.89013	144.43
0.056916	489.39	0.8847	149.89
0.056916	494.69	0.87917	155.54
0.056916	500	0.87355	161.35
0.065992	240	1.0285	-24.762
0.065992	245.31	1.0303	-16.038
0.065992	250.61	1.0314	-8.9811
0.065992	255.92	1.032	-3.3252
0.065992	261.22	1.0321	1.3359
0.065992	266.53	1.0318	5.2854
0.065992	271.84	1.0312	8.7941
0.065992	277.14	1.0303	12.008
0.065992	282.45	1.0292	15.022
0.065992	287.76	1.0279	17.888
0.065992	293.06	1.0265	20.664
0.065992	298.37	1.0248	23.395
0.065992	303.67	1.0229	26.093
0.065992	308.98	1.0209	28.748
0.065992	314.29	1.0188	31.366
0.065992	319.59	1.0165	33.969
0.065992	324.9	1.0141	36.57
0.065992	330.2	1.0115	39.177
0.065992	335.51	1.0088	41.798
0.065992	340.82	1.006	44.444
0.065992	346.12	1.0031	47.116
0.065992	351.43	1.0001	49.817
0.065992	356.73	0.997	52.552
0.065992	362.04	0.99378	55.327
0.065992	367.35	0.99047	58.145
0.065992	372.65	0.98705	61.011
0.065992	377.96	0.98355	63.925
0.065992	383.27	0.97995	66.895
0.065992	388.57	0.97626	69.922
0.065992	393.88	0.97248	73.011
0.065992	399.18	0.96862	76.166
0.065992	404.49	0.96467	79.393
0.065992	409.8	0.96064	82.696
0.065992	415.1	0.95652	86.078
0.065992	420.41	0.95232	89.545
0.065992	425.71	0.94804	93.102
0.065992	431.02	0.94368	96.755
0.065992	436.33	0.93924	100.51
0.065992	441.63	0.93471	104.37
0.065992	446.94	0.9301	108.35
0.065992	452.24	0.92541	112.45
0.065992	457.55	0.92064	116.67
0.065992	462.86	0.91578	121.03
0.065992	468.16	0.91084	125.53
0.065992	473.47	0.90581	130.17
0.065992	478.78	0.9007	134.98
0.065992	484.08	0.89551	139.96
0.065992	489.39	0.89022	145.1
0.065992	494.69	0.88485	150.4
0.065992	500	0.87938	155.84
0.076516	240	1.035	-18.267
0.076516	245.31	1.0363	-10.858
0.076516	250.61	1.037	-4.8529
0.076516	255.92	1.0372	-0.017337
0.076516	261.22	1.037	4.012
0.076516	266.53	1.0365	7.4748
0.076516	271.84	1.0358	10.593
0.076516	277.14	1.0348	13.492
0.076516	282.45	1.0336	16.244
0.076516	287.76	1.0322	18.887
0.076516	293.06	1.0306	21.469
0.076516	298.37	1.0289	24.03
0.076516	303.67	1.027	26.578
0.076516	308.98	1.025	29.095
0.076516	314.29	1.0228	31.585
0.076516	319.59	1.0205	34.066
0.076516	324.9	1.018	36.55
0.076516	330.2	1.0155	39.045
0.076516	335.51	1.0128	41.559
0.076516	340.82	1.01	44.1
0.076516	346.12	1.0071	46.67
0.076516	351.43	1.0041	49.27
0.076516	356.73	1.001	51.903
0.076516	362.04	0.99784	54.575
0.076516	367.35	0.99456	57.29
0.076516	372.65	0.99118	60.05
0.076516	377.96	0.98771	62.857
0.076516	383.27	0.98416	65.716
0.076516	388.57	0.98052	68.629
0.076516	393.88	0.9768	71.599
0.076516	399.18	0.973	74.631
0.076516	404.49	0.96911	77.729
0.076516	409.8	0.96515	80.897
0.076516	415.1	0.9611	84.138
0.076516	420.41	0.95698	87.457
0.076516	425.71	0.95278	90.858
0.076516	431.02	0.9485	94.347
0.076516	436.33	0.94415	97.928
0.076516	441.63	0.93972	101.61
0.076516	446.94	0.93521	105.39
0.076516	452.24	0.93063	109.28
0.076516	457.55	0.92596	113.29
0.076516	462.86	0.92122	117.41
0.076516	468.16	0.91641	121.66
0.076516	473.47	0.91151	126.03
0.076516	478.78	0.90654	130.56
0.076516	484.08	0.90149	135.24
0.076516	489.39	0.89635	140.05
0.076516	494.69	0.89114	145
0.076516	500	0.88584	150.07
0.088718	240	1.0421	-11.697
0.088718	245.31	1.0429	-5.5713
0.088718	250.61	1.0432	-0.60571
0.088718	255.92	1.0431	3.4111
0.088718	261.22	1.0426	6.8032
0.088718	266.53	1.0419	9.7718
0.088718	271.84	1.041	12.492
0.088718	277.14	1.0398	15.068
0.088718	282.45	1.0385	17.552
0.088718	287.76	1.037	19.963
0.088718	293.06	1.0354	22.339
0.088718	298.37	1.0336	24.718
0.088718	303.67	1.0316	27.1
0.088718	308.98	1.0295	29.469
0.088718	314.29	1.0273	31.82
0.088718	319.59	1.025	34.171
0.088718	324.9	1.0225	36.531
0.088718	330.2	1.02	38.906
0.088718	335.51	1.0173	41.304
0.088718	340.82	1.0145	43.73
0.088718	346.12	1.0116	46.188
0.088718	351.43	1.0087	48.678
0.088718	356.73	1.0056	51.201
0.088718	362.04	1.0024	53.764
0.088718	367.35	0.99918	56.367
0.088718	372.65	0.99585	59.014
0.088718	377.96	0.99243	61.705
0.088718	383.27	0.98892	64.444
0.088718	388.57	0.98534	67.233
0.088718	393.88	0.98168	70.077
0.088718	399.18	0.97794	72.977
0.088718	404.49	0.97412	75.939
0.088718	409.8	0.97022	78.964
0.088718	415.1	0.96626	82.056
0.088718	420.41	0.96222	85.219
0.088718	425.71	0.9581	88.456
0.088718	431.02	0.95392	91.773
0.088718	436.33	0.94966	95.173
0.088718	441.63	0.94533	98.662
0.088718	446.94	0.94093	102.24
0.088718	452.24	0.93645	105.92
0.088718	457.55	0.93191	109.7
0.088718	462.86	0.92729	113.59
0.088718	468.16	0.92261	117.57
0.088718	473.47	0.91785	121.68
0.088718	478.78	0.91302	125.92
0.088718	484.08	0.90812	130.29
0.088718	489.39	0.90314	134.78
0.088718	494.69	0.89809	139.38
0.088718	500	0.89297	144.08
0.10287	240	1.05	-5.2873
0.10287	245.31	1.0502	-0.34539
0.10287	250.61	1.0501	3.6457
0.10287	255.92	1.0496	6.8817
0.10287	261.22	1.0489	9.6565
0.10287	266.53	1.0479	12.14
0.10287	271.84	1.0468	14.467
0.10287	277.14	1.0455	16.721
0.10287	282.45	1.0441	18.933
0.10287	287.76	1.0425	21.106
0.10287	293.06	1.0407	23.268
0.10287	298.37	1.0388	25.451
0.10287	303.67	1.0368	27.656
0.10287	308.98	1.0347	29.865
0.10287	314.29	1.0325	32.068
0.10287	319.59	1.0301	34.281
0.10287	324.9	1.0276	36.511
0.10287	330.2	1.0251	38.759
0.10287	335.51	1.0224	41.032
0.10287	340.82	1.0196	43.335
0.10287	346.12	1.0167	45.671
0.10287	351.43	1.0138	48.041
0.10287	356.73	1.0107	50.447
0.10287	362.04	1.0076	52.893
0.10287	367.35	1.0044	55.378
0.10287	372.65	1.0011	57.904
0.10287	377.96	0.99774	60.47
0.10287	383.27	0.99429	63.081
0.10287	388.57	0.99076	65.739
0.10287	393.88	0.98716	68.448
0.10287	399.18	0.98349	71.21
0.10287	404.49	0.97974	74.027
0.10287	409.8	0.97592	76.903
0.10287	415.1	0.97204	79.84
0.10287	420.41	0.96808	82.839
0.10287	425.71	0.96406	85.906
0.10287	431.02	0.95997	89.043
0.10287	436.33	0.95581	92.256
0.10287	441.63	0.95159	95.548
0.10287	446.94	0.9473	98.922
0.10287	452.24	0.94295	102.38
0.10287	457.55	0.93852	105.93
0.10287	462.86	0.93404	109.57
0.10287	468.16	0.92949	113.3
0.10287	473.47	0.92487	117.14
0.10287	478.78	0.92019	121.09
0.10287	484.08	0.91544	125.15
0.10287	489.39	0.91063	129.31
0.10287	494.69	0.90575	133.57
0.10287	500	0.9008	137.91
0.11927	240	1.0585	0.73239
0.11927	245.31	1.0582	4.6466
0.11927	250.61	1.0576	7.7745
0.11927	255.92	1.0568	10.302
0.11927	261.22	1.0558	12.505
0.11927	266.53	1.0547	14.531
0.11927	271.84	1.0533	16.481
0.11927	277.14	1.0519	18.42
0.11927	282.45	1.0503	20.363
0.11927	287.76	1.0486	22.298
0.11927	293.06	1.0467	24.24
0.11927	298.37	1.0448	26.219
0.11927	303.67	1.0427	28.235
0.11927	308.98	1.0405	30.275
0.11927	314.29	1.0383	32.324
0.11927	319.59	1.0359	34.394
0.11927	324.9	1.0334	36.488
0.11927	330.2	1.0308	38.604
0.11927	335.51	1.0281	40.744
0.11927	340.82	1.0254	42.913
0.11927	346.12	1.0225	45.118
0.11927	351.43	1.0196	47.361
0.11927	356.73	1.0166	49.642
0.11927	362.04	1.0135	51.964
0.11927	367.35	1.0103	54.325
0.11927	372.65	1.007	56.723
0.11927	377.96	1.0037	59.158
0.11927	383.27	1.0003	61.632
0.11927	388.57	0.99685	64.151
0.11927	393.88	0.99331	66.718
0.11927	399.18	0.98971	69.334
0.11927	404.49	0.98604	72.002
0.11927	409.8	0.9823	74.723
0.11927	415.1	0.9785	77.498
0.11927	420.41	0.97464	80.329
0.11927	425.71	0.97071	83.219
0.11927	431.02	0.96672	86.172
0.11927	436.33	0.96267	89.192
0.11927	441.63	0.95856	92.283
0.11927	446.94	0.95438	95.445
0.11927	452.24	0.95015	98.682
0.11927	457.55	0.94586	102
0.11927	462.86	0.94151	105.39
0.11927	468.16	0.93709	108.87
0.11927	473.47	0.93262	112.43
0.11927	478.78	0.92809	116.09
0.11927	484.08	0.92351	119.85
0.11927	489.39	0.91886	123.7
0.11927	494.69	0.91415	127.62
0.11927	500	0.90938	131.61
0.13829	240	1.0677	6.1685
0.13829	245.31	1.0669	9.2486
0.13829	250.61	1.066	11.66
0.13829	255.92	1.0648	13.579
0.13829	261.22	1.0636	15.276
0.13829	266.53	1.0622	16.888
0.13829	271.84	1.0606	18.489
0.13829	277.14	1.059	20.128
0.13829	282.45	1.0573	21.809
0.13829	287.76	1.0555	23.508
0.13829	293.06	1.0535	25.231
0.13829	298.37	1.0515	27.004
0.13829	303.67	1.0493	28.829
0.13829	308.98	1.0471	30.694
0.13829	314.29	1.0448	32.584
0.13829	319.59	1.0424	34.505
0.13829	324.9	1.0399	36.458
0.13829	330.2	1.0373	38.436
0.13829	335.51	1.0346	40.436
0.13829	340.82	1.0318	42.466
0.13829	346.12	1.029	44.531
0.13829	351.43	1.0261	46.638
0.13829	356.73	1.0231	48.788
0.13829	362.04	1.02	50.98
0.13829	367.35	1.0169	53.211
0.13829	372.65	1.0137	55.475
0.13829	377.96	1.0104	57.772
0.13829	383.27	1.0071	60.104
0.13829	388.57	1.0037	62.476
0.13829	393.88	1.0002	64.895
0.13829	399.18	0.99666	67.36
0.13829	404.49	0.99307	69.874
0.13829	409.8	0.98942	72.435
0.13829	415.1	0.98571	75.043
0.13829	420.41	0.98193	77.701
0.13829	425.71	0.97811	80.412
0.13829	431.02	0.97422	83.177
0.13829	436.33	0.97028	86.001
0.13829	441.63	0.96628	88.887
0.13829	446.94	0.96223	91.836
0.13829	452.24	0.95812	94.85
0.13829	457.55	0.95396	97.932
0.13829	462.86	0.94974	101.08
0.13829	468.16	0.94548	104.3
0.13829	473.47	0.94116	107.59
0.13829	478.78	0.93678	110.97
0.13829	484.08	0.93235	114.44
0.13829	489.39	0.92788	117.97
0.13829	494.69	0.92334	121.57
0.13829	500	0.91876	125.22
0.16034	240	1.0776	10.921
0.16034	245.31	1.0764	13.354
0.16034	250.61	1.0751	15.2
0.16034	255.92	1.0737	16.622
0.16034	261.22	1.0721	17.888
0.16034	266.53	1.0705	19.14
0.16034	271.84	1.0688	20.431
0.16034	277.14	1.067	21.797
0.16034	282.45	1.0651	23.232
0.16034	287.76	1.0631	24.708
0.16034	293.06	1.0611	26.22
0.16034	298.37	1.059	27.789
0.16034	303.67	1.0568	29.422
0.16034	308.98	1.0545	31.11
0.16034	314.29	1.0521	32.838
0.16034	319.59	1.0496	34.604
0.16034	324.9	1.0471	36.409
0.16034	330.2	1.0445	38.244
0.16034	335.51	1.0418	40.102
0.16034	340.82	1.0391	41.988
0.16034	346.12	1.0362	43.909
0.16034	351.43	1.0333	45.876
0.16034	356.73	1.0304	47.888
0.16034	362.04	1.0274	49.944
0.16034	367.35	1.0243	52.038
0.16034	372.65	1.0211	54.164
0.16034	377.96	1.0179	56.318
0.16034	383.27	1.0146	58.503
0.16034	388.57	1.0113	60.725
0.16034	393.88	1.0079	62.99
0.16034	399.18	1.0044	65.3
0.16034	404.49	1.0009	67.655
0.16034	409.8	0.99733	70.052
0.16034	415.1	0.99371	72.492
0.16034	420.41	0.99003	74.975
0.16034	425.71	0.9863	77.503
0.16034	431.02	0.98253	80.079
0.16034	436.33	0.9787	82.706
0.16034	441.63	0.97482	85.386
0.16034	446.94	0.97089	88.122
0.16034	452.24	0.96691	90.914
0.16034	457.55	0.96288	93.764
0.16034	462.86	0.95881	96.673
0.16034	468.16	0.95468	99.64
0.16034	473.47	0.95051	102.67
0.16034	478.78	0.9463	105.77
0.16034	484.08	0.94203	108.95
0.16034	489.39	0.93772	112.18
0.16034	494.69	0.93337	115.47
0.16034	500	0.92896	118.8
0.18591	240	1.0882	14.917
0.18591	245.31	1.0867	16.883
0.18591	250.61	1.0851	18.318
0.18591	255.92	1.0833	19.359
0.18591	261.22	1.0815	20.277
0.18591	266.53	1.0797	21.229
0.18591	271.84	1.0778	22.257
0.18591	277.14	1.0758	23.382
0.18591	282.45	1.0738	24.595
0.18591	287.76	1.0717	25.865
0.18591	293.06	1.0695	27.179
0.18591	298.37	1.0673	28.551
0.18591	303.67	1.065	29.993
0.18591	308.98	1.0627	31.503
0.18591	314.29	1.0603	33.068
0.18591	319.59	1.0578	34.677
0.18591	324.9	1.0552	36.333
0.18591	330.2	1.0526	38.022
0.18591	335.51	1.0499	39.736
0.18591	340.82	1.0472	41.478
0.18591	346.12	1.0443	43.254
0.18591	351.43	1.0415	45.075
0.18591	356.73	1.0385	46.944
0.18591	362.04	1.0355	48.858
0.18591	367.35	1.0325	50.809
0.18591	372.65	1.0294	52.792
0.18591	377.96	1.0262	54.801
0.18591	383.27	1.023	56.838
0.18591	388.57	1.0197	58.907
0.18591	393.88	1.0164	61.015
0.18591	399.18	1.013	63.166
0.18591	404.49	1.0096	65.359
0.18591	409.8	1.0061	67.591
0.18591	415.1	1.0026	69.86
0.18591	420.41	0.99899	72.168
0.18591	425.71	0.99536	74.515
0.18591	431.02	0.99169	76.902
0.18591	436.33	0.98798	79.332
0.18591	441.63	0.98421	81.808
0.18591	446.94	0.98041	84.332
0.18591	452.24	0.97656	86.904
0.18591	457.55	0.97267	89.526
0.18591	462.86	0.96873	92.199
0.18591	468.16	0.96476	94.92
0.18591	473.47	0.96074	97.696
0.18591	478.78	0.95668	100.54
0.18591	484.08	0.95258	103.43
0.18591	489.39	0.94844	106.38
0.18591	494.69	0.94426	109.37
0.18591	500	0.94004	112.39
0.21556	240	1.0996	18.079
0.21556	245.31	1.0978	19.762
0.21556	250.61	1.0959	20.951
0.21556	255.92	1.0939	21.742
0.21556	261.22	1.0918	22.403
0.21556	266.53	1.0898	23.12
0.21556	271.84	1.0877	23.93
0.21556	277.14	1.0855	24.847
0.21556	282.45	1.0834	25.857
0.21556	287.76	1.0812	26.937
0.21556	293.06	1.0789	28.068
0.21556	298.37	1.0766	29.257
0.21556	303.67	1.0742	30.519
0.21556	308.98	1.0718	31.855
0.21556	314.29	1.0693	33.259
0.21556	319.59	1.0668	34.712
0.21556	324.9	1.0642	36.214
0.21556	330.2	1.0616	37.756
0.21556	335.51	1.0589	39.328
0.21556	340.82	1.0561	40.926
0.21556	346.12	1.0533	42.559
0.21556	351.43	1.0505	44.234
0.21556	356.73	1.0476	45.958
0.21556	362.04	1.0446	47.727
0.21556	367.35	1.0416	49.532
0.21556	372.65	1.0385	51.369
0.21556	377.96	1.0354	53.231
0.21556	383.27	1.0323	55.118
0.21556	388.57	1.0291	57.032
0.21556	393.88	1.0258	58.982
0.21556	399.18	1.0225	60.973
0.21556	404.49	1.0192	63.003
0.21556	409.8	1.0158	65.069
0.21556	415.1	1.0123	67.169
0.21556	420.41	1.0089	69.301
0.21556	425.71	1.0053	71.468
0.21556	431.02	1.0018	73.669
0.21556	436.33	0.99817	75.906
0.21556	441.63	0.99453	78.18
0.21556	446.94	0.99085	80.496
0.21556	452.24	0.98713	82.853
0.21556	457.55	0.98338	85.253
0.21556	462.86	0.97958	87.696
0.21556	468.16	0.97575	90.18
0.21556	473.47	0.97188	92.711
0.21556	478.78	0.96798	95.296
0.21556	484.08	0.96404	97.928
0.21556	489.39	0.96007	100.6
0.21556	494.69	0.95606	103.3
0.21556	500	0.95202	106.04
0.24994	240	1.1118	20.452
0.24994	245.31	1.1097	21.994
0.24994	250.61	1.1076	23.075
0.24994	255.92	1.1053	23.736
0.24994	261.22	1.1031	24.223
0.24994	266.53	1.1008	24.766
0.24994	271.84	1.0985	25.406
0.24994	277.14	1.0962	26.15
0.24994	282.45	1.0939	26.984
0.24994	287.76	1.0916	27.893
0.24994	293.06	1.0892	28.86
0.24994	298.37	1.0868	29.878
0.24994	303.67	1.0844	30.97
0.24994	308.98	1.0819	32.14
0.24994	314.29	1.0794	33.387
0.24994	319.59	1.0768	34.691
0.24994	324.9	1.0742	36.044
0.24994	330.2	1.0716	37.441
0.24994	335.51	1.0689	38.872
0.24994	340.82	1.0661	40.33
0.24994	346.12	1.0633	41.819
0.24994	351.43	1.0605	43.348
0.24994	356.73	1.0576	44.926
0.24994	362.04	1.0547	46.548
0.24994	367.35	1.0517	48.208
0.24994	372.65	1.0487	49.898
0.24994	377.96	1.0456	51.613
0.24994	383.27	1.0425	53.351
0.24994	388.57	1.0394	55.113
0.24994	393.88	1.0362	56.905
0.24994	399.18	1.033	58.734
0.24994	404.49	1.0297	60.6
0.24994	409.8	1.0264	62.502
0.24994	415.1	1.0231	64.434
0.24994	420.41	1.0197	66.394
0.24994	425.71	1.0163	68.385
0.24994	431.02	1.0128	70.403
0.24994	436.33	1.0093	72.451
0.24994	441.63	1.0058	74.531
0.24994	446.94	1.0023	76.643
0.24994	452.24	0.99867	78.791
0.24994	457.55	0.99505	80.977
0.24994	462.86	0.99139	83.198
0.24994	468.16	0.98771	85.456
0.24994	473.47	0.98399	87.754
0.24994	478.78	0.98024	90.096
0.24994	484.08	0.97646	92.477
0.24994	489.39	0.97265	94.89
0.24994	494.69	0.96881	97.331
0.24994	500	0.96494	99.798
0.28979	240	1.1248	22.18
0.28979	245.31	1.1225	23.665
0.28979	250.61	1.1202	24.735
0.28979	255.92	1.1178	25.359
0.28979	261.22	1.1153	25.739
0.28979	266.53	1.1129	26.151
0.28979	271.84	1.1104	26.656
0.28979	277.14	1.108	27.255
0.28979	282.45	1.1055	27.935
0.28979	287.76	1.1031	28.692
0.28979	293.06	1.1006	29.514
0.28979	298.37	1.0981	30.387
0.28979	303.67	1.0956	31.326
0.28979	308.98	1.093	32.344
0.28979	314.29	1.0905	33.44
0.28979	319.59	1.0879	34.599
0.28979	324.9	1.0852	35.806
0.28979	330.2	1.0826	37.06
0.28979	335.51	1.0799	38.354
0.28979	340.82	1.0771	39.679
0.28979	346.12	1.0743	41.033
0.28979	351.43	1.0715	42.422
0.28979	356.73	1.0687	43.853
0.28979	362.04	1.0658	45.328
0.28979	367.35	1.0628	46.842
0.28979	372.65	1.0599	48.384
0.28979	377.96	1.0569	49.953
0.28979	383.27	1.0538	51.544
0.28979	388.57	1.0507	53.156
0.28979	393.88	1.0476	54.795
0.28979	399.18	1.0445	56.464
0.28979	404.49	1.0413	58.168
0.28979	409.8	1.0381	59.906
0.28979	415.1	1.0348	61.673
0.28979	420.41	1.0315	63.466
0.28979	425.71	1.0282	65.283
0.28979	431.02	1.0249	67.125
0.28979	436.33	1.0215	68.991
0.28979	441.63	1.0181	70.883
0.28979	446.94	1.0147	72.801
0.28979	452.24	1.0112	74.749
0.28979	457.55	1.0077	76.728
0.28979	462.86	1.0042	78.738
0.28979	468.16	1.0007	80.78
0.28979	473.47	0.9971	82.856
0.28979	478.78	0.9935	84.967
0.28979	484.08	0.98988	87.111
0.28979	489.39	0.98623	89.282
0.28979	494.69	0.98255	91.477
0.28979	500	0.97886	93.692
0.33601	240	1.1387	23.347
0.33601	245.31	1.1363	24.814
0.33601	250.61	1.1338	25.936
0.33601	255.92	1.1312	26.599
0.33601	261.22	1.1286	26.937
0.33601	266.53	1.126	27.252
0.33601	271.84	1.1234	27.653
0.33601	277.14	1.1208	28.14
0.33601	282.45	1.1182	28.696
0.33601	287.76	1.1156	29.322
0.33601	293.06	1.113	30.016
0.33601	298.37	1.1105	30.762
0.33601	303.67	1.1079	31.561
0.33601	308.98	1.1053	32.438
0.33601	314.29	1.1027	33.391
0.33601	319.59	1.1	34.416
0.33601	324.9	1.0974	35.487
0.33601	330.2	1.0947	36.604
0.33601	335.51	1.092	37.766
0.33601	340.82	1.0892	38.966
0.33601	346.12	1.0864	40.191
0.33601	351.43	1.0836	41.445
0.33601	356.73	1.0808	42.735
0.33601	362.04	1.0779	44.066
0.33601	367.35	1.075	45.434
0.33601	372.65	1.0721	46.833
0.33601	377.96	1.0692	48.256
0.33601	383.27	1.0662	49.702
0.33601	388.57	1.0632	51.171
0.33601	393.88	1.0601	52.661
0.33601	399.18	1.057	54.177
0.33601	404.49	1.0539	55.724
0.33601	409.8	1.0508	57.3
0.33601	415.1	1.0477	58.906
0.33601	420.41	1.0445	60.536
0.33601	425.71	1.0413	62.185
0.33601	431.02	1.038	63.855
0.33601	436.33	1.0348	65.547
0.33601	441.63	1.0315	67.259
0.33601	446.94	1.0282	68.994
0.33601	452.24	1.0248	70.752
0.33601	457.55	1.0215	72.533
0.33601	462.86	1.0181	74.343
0.33601	468.16	1.0147	76.179
0.33601	473.47	1.0113	78.044
0.33601	478.78	1.0078	79.939
0.33601	484.08	1.0043	81.861
0.33601	489.39	1.0008	83.806
0.33601	494.69	0.99733	85.77
0.33601	500	0.99379	87.749
0.38959	240	1.1535	23.959
0.38959	245.31	1.151	25.438
0.38959	250.61	1.1484	26.66
0.38959	255.92	1.1457	27.432
0.38959	261.22	1.1429	27.811
0.38959	266.53	1.1401	28.066
0.38959	271.84	1.1374	28.389
0.38959	277.14	1.1347	28.793
0.38959	282.45	1.132	29.252
0.38959	287.76	1.1293	29.769
0.38959	293.06	1.1266	30.348
0.38959	298.37	1.124	30.983
0.38959	303.67	1.1213	31.658
0.38959	308.98	1.1186	32.401
0.38959	314.29	1.116	33.224
0.38959	319.59	1.1133	34.122
0.38959	324.9	1.1106	35.074
0.38959	330.2	1.1079	36.066
0.38959	335.51	1.1052	37.098
0.38959	340.82	1.1024	38.173
0.38959	346.12	1.0997	39.276
0.38959	351.43	1.0969	40.403
0.38959	356.73	1.0941	41.561
0.38959	362.04	1.0912	42.756
0.38959	367.35	1.0884	43.986
0.38959	372.65	1.0855	45.249
0.38959	377.96	1.0826	46.533
0.38959	383.27	1.0797	47.839
0.38959	388.57	1.0767	49.166
0.38959	393.88	1.0738	50.515
0.38959	399.18	1.0708	51.885
0.38959	404.49	1.0677	53.279
0.38959	409.8	1.0647	54.701
0.38959	415.1	1.0616	56.149
0.38959	420.41	1.0585	57.619
0.38959	425.71	1.0554	59.11
0.38959	431.02	1.0523	60.616
0.38959	436.33	1.0491	62.139
0.38959	441.63	1.046	63.682
0.38959	446.94	1.0428	65.242
0.38959	452.24	1.0395	66.821
0.38959	457.55	1.0363	68.419
0.38959	462.86	1.0331	70.037
0.38959	468.16	1.0298	71.678
0.38959	473.47	1.0265	73.344
0.38959	478.78	1.0232	75.037
0.38959	484.08	1.0199	76.751
0.38959	489.39	1.0165	78.482
0.38959	494.69	1.0132	80.229
0.38959	500	1.0098	81.993
0.45172	240	1.1692	24.171
0.45172	245.31	1.1666	25.647
0.45172	250.61	1.164	26.972
0.45172	255.92	1.1612	27.883
0.45172	261.22	1.1583	28.376
0.45172	266.53	1.1554	28.617
0.45172	271.84	1.1525	28.864
0.45172	277.14	1.1497	29.2
0.45172	282.45	1.1469	29.587
0.45172	287.76	1.1441	30.013
0.45172	293.06	1.1414	30.494
0.45172	298.37	1.1386	31.031
0.45172	303.67	1.1359	31.61
0.45172	308.98	1.1332	32.232
0.45172	314.29	1.1305	32.934
0.45172	319.59	1.1278	33.71
0.45172	324.9	1.125	34.551
0.45172	330.2	1.1223	35.429
0.45172	335.51	1.1196	36.34
0.45172	340.82	1.1169	37.289
0.45172	346.12	1.1141	38.279
0.45172	351.43	1.1113	39.29
0.45172	356.73	1.1085	40.327
0.45172	362.04	1.1057	41.397
0.45172	367.35	1.1029	42.5
0.45172	372.65	1.1001	43.631
0.45172	377.96	1.0972	44.786
0.45172	383.27	1.0944	45.958
0.45172	388.57	1.0915	47.147
0.45172	393.88	1.0886	48.36
0.45172	399.18	1.0856	49.593
0.45172	404.49	1.0827	50.846
0.45172	409.8	1.0797	52.12
0.45172	415.1	1.0768	53.415
0.45172	420.41	1.0738	54.732
0.45172	425.71	1.0707	56.069
0.45172	431.02	1.0677	57.421
0.45172	436.33	1.0647	58.788
0.45172	441.63	1.0616	60.166
0.45172	446.94	1.0585	61.563
0.45172	452.24	1.0554	62.975
0.45172	457.55	1.0523	64.401
0.45172	462.86	1.0492	65.841
0.45172	468.16	1.046	67.3
0.45172	473.47	1.0429	68.781
0.45172	478.78	1.0397	70.281
0.45172	484.08	1.0365	71.8
0.45172	489.39	1.0333	73.335
0.45172	494.69	1.0301	74.884
0.45172	500	1.0269	76.447
0.52376	240	1.186	24.139
0.52376	245.31	1.1833	25.562
0.52376	250.61	1.1806	26.948
0.52376	255.92	1.1778	27.994
0.52376	261.22	1.1749	28.632
0.52376	266.53	1.1719	28.934
0.52376	271.84	1.1689	29.106
0.52376	277.14	1.1659	29.36
0.52376	282.45	1.163	29.694
0.52376	287.76	1.1602	30.053
0.52376	293.06	1.1573	30.449
0.52376	298.37	1.1545	30.9
0.52376	303.67	1.1517	31.401
0.52376	308.98	1.1489	31.934
0.52376	314.29	1.1462	32.516
0.52376	319.59	1.1434	33.179
0.52376	324.9	1.1407	33.905
0.52376	330.2	1.138	34.682
0.52376	335.51	1.1352	35.488
0.52376	340.82	1.1325	36.321
0.52376	346.12	1.1298	37.196
0.52376	351.43	1.127	38.106
0.52376	356.73	1.1242	39.034
0.52376	362.04	1.1215	39.985
0.52376	367.35	1.1187	40.966
0.52376	372.65	1.1159	41.976
0.52376	377.96	1.1131	43.01
0.52376	383.27	1.1103	44.061
0.52376	388.57	1.1074	45.128
0.52376	393.88	1.1046	46.209
0.52376	399.18	1.1017	47.311
0.52376	404.49	1.0989	48.43
0.52376	409.8	1.096	49.565
0.52376	415.1	1.0931	50.717
0.52376	420.41	1.0902	51.887
0.52376	425.71	1.0873	53.076
0.52376	431.02	1.0843	54.283
0.52376	436.33	1.0814	55.502
0.52376	441.63	1.0784	56.732
0.52376	446.94	1.0755	57.972
0.52376	452.24	1.0725	59.224
0.52376	457.55	1.0695	60.492
0.52376	462.86	1.0665	61.77
0.52376	468.16	1.0634	63.062
0.52376	473.47	1.0604	64.368
0.52376	478.78	1.0574	65.689
0.52376	484.08	1.0543	67.027
0.52376	489.39	1.0513	68.381
0.52376	494.69	1.0482	69.749
0.52376	500	1.0451	71.124
0.60728	240	1.2037	23.931
0.60728	245.31	1.2011	25.237
0.60728	250.61	1.1984	26.64
0.60728	255.92	1.1956	27.797
0.60728	261.22	1.1926	28.581
0.60728	266.53	1.1896	29.013
0.60728	271.84	1.1865	29.181
0.60728	277.14	1.1834	29.31
0.60728	282.45	1.1804	29.567
0.60728	287.76	1.1774	29.886
0.60728	293.06	1.1745	30.214
0.60728	298.37	1.1716	30.587
0.60728	303.67	1.1688	31.019
0.60728	308.98	1.166	31.493
0.60728	314.29	1.1632	31.985
0.60728	319.59	1.1604	32.527
0.60728	324.9	1.1577	33.144
0.60728	330.2	1.1549	33.818
0.60728	335.51	1.1522	34.527
0.60728	340.82	1.1494	35.263
0.60728	346.12	1.1467	36.021
0.60728	351.43	1.144	36.826
0.60728	356.73	1.1412	37.664
0.60728	362.04	1.1385	38.52
0.60728	367.35	1.1358	39.389
0.60728	372.65	1.133	40.286
0.60728	377.96	1.1302	41.206
0.60728	383.27	1.1275	42.145
0.60728	388.57	1.1247	43.099
0.60728	393.88	1.1219	44.064
0.60728	399.18	1.1191	45.042
0.60728	404.49	1.1163	46.034
0.60728	409.8	1.1135	47.045
0.60728	415.1	1.1107	48.065
0.60728	420.41	1.1079	49.099
0.60728	425.71	1.105	50.148
0.60728	431.02	1.1022	51.214
0.60728	436.33	1.0994	52.296
0.60728	441.63	1.0965	53.389
0.60728	446.94	1.0936	54.488
0.60728	452.24	1.0908	55.595
0.60728	457.55	1.0879	56.71
0.60728	462.86	1.085	57.837
0.60728	468.16	1.0821	58.979
0.60728	473.47	1.0792	60.13
0.60728	478.78	1.0763	61.289
0.60728	484.08	1.0733	62.459
0.60728	489.39	1.0704	63.642
0.60728	494.69	1.0675	64.839
0.60728	500	1.0645	66.051
0.70412	240	1.2226	23.574
0.70412	245.31	1.2199	24.706
0.70412	250.61	1.2172	26.086
0.70412	255.92	1.2145	27.334
0.70412	261.22	1.2116	28.262
0.70412	266.53	1.2085	28.845
0.70412	271.84	1.2053	29.107
0.70412	277.14	1.2021	29.166
0.70412	282.45	1.199	29.248
0.70412	287.76	1.196	29.489
0.70412	293.06	1.193	29.797
0.70412	298.37	1.1901	30.105
0.70412	303.67	1.1872	30.466
0.70412	308.98	1.1843	30.887
0.70412	314.29	1.1815	31.329
0.70412	319.59	1.1787	31.774
0.70412	324.9	1.1759	32.266
0.70412	330.2	1.1732	32.831
0.70412	335.51	1.1704	33.457
0.70412	340.82	1.1677	34.111
0.70412	346.12	1.165	34.787
0.70412	351.43	1.1623	35.484
0.70412	356.73	1.1596	36.223
0.70412	362.04	1.1568	36.991
0.70412	367.35	1.1541	37.776
0.70412	372.65	1.1514	38.565
0.70412	377.96	1.1487	39.381
0.70412	383.27	1.146	40.22
0.70412	388.57	1.1433	41.075
0.70412	393.88	1.1406	41.937
0.70412	399.18	1.1378	42.802
0.70412	404.49	1.1351	43.675
0.70412	409.8	1.1324	44.557
0.70412	415.1	1.1296	45.459
0.70412	420.41	1.1269	46.373
0.70412	425.71	1.1241	47.295
0.70412	431.02	1.1214	48.229
0.70412	436.33	1.1186	49.176
0.70412	441.63	1.1159	50.138
0.70412	446.94	1.1131	51.11
0.70412	452.24	1.1103	52.087
0.70412	457.55	1.1075	53.068
0.70412	462.86	1.1047	54.058
0.70412	468.16	1.102	55.055
0.70412	473.47	1.0992	56.064
0.70412	478.78	1.0964	57.085
0.70412	484.08	1.0936	58.112
0.70412	489.39	1.0908	59.141
0.70412	494.69	1.088	60.181
0.70412	500	1.0851	61.249
0.81641	240	1.2426	22.818
0.81641	245.31	1.2399	23.778
0.81641	250.61	1.2373	25.088
0.81641	255.92	1.2346	26.413
0.81641	261.22	1.2317	27.545
0.81641	266.53	1.2287	28.333
0.81641	271.84	1.2256	28.734
0.81641	277.14	1.2223	28.877
0.81641	282.45	1.2191	28.899
0.81641	287.76	1.216	28.947
0.81641	293.06	1.213	29.141
0.81641	298.37	1.21	29.446
0.81641	303.67	1.207	29.769
0.81641	308.98	1.2041	30.108
0.81641	314.29	1.2012	30.494
0.81641	319.59	1.1984	30.916
0.81641	324.9	1.1956	31.348
0.81641	330.2	1.1928	31.813
0.81641	335.51	1.1901	32.343
0.81641	340.82	1.1874	32.935
0.81641	346.12	1.1847	33.55
0.81641	351.43	1.182	34.173
0.81641	356.73	1.1793	34.817
0.81641	362.04	1.1766	35.49
0.81641	367.35	1.1739	36.191
0.81641	372.65	1.1712	36.907
0.81641	377.96	1.1686	37.623
0.81641	383.27	1.1659	38.349
0.81641	388.57	1.1632	39.095
0.81641	393.88	1.1606	39.858
0.81641	399.18	1.1579	40.624
0.81641	404.49	1.1552	41.388
0.81641	409.8	1.1525	42.155
0.81641	415.1	1.1499	42.93
0.81641	420.41	1.1472	43.719
0.81641	425.71	1.1445	44.522
0.81641	431.02	1.1419	45.333
0.81641	436.33	1.1392	46.154
0.81641	441.63	1.1365	46.983
0.81641	446.94	1.1339	47.826
0.81641	452.24	1.1312	48.684
0.81641	457.55	1.1285	49.549
0.81641	462.86	1.1258	50.415
0.81641	468.16	1.1231	51.288
0.81641	473.47	1.1205	52.169
0.81641	478.78	1.1178	53.057
0.81641	484.08	1.1151	53.955
0.81641	489.39	1.1124	54.868
0.81641	494.69	1.1097	55.796
0.81641	500	1.107	56.73
0.9466	240	1.2637	22.118
0.9466	245.31	1.261	22.59
0.9466	250.61	1.2584	23.632
0.9466	255.92	1.2558	25.043
0.9466	261.22	1.2531	26.465
0.9466	266.53	1.2502	27.441
0.9466	271.84	1.2472	27.896
0.9466	277.14	1.244	28.131
0.9466	282.45	1.2407	28.339
0.9466	287.76	1.2375	28.464
0.9466	293.06	1.2343	28.499
0.9466	298.37	1.2313	28.597
0.9466	303.67	1.2283	28.862
0.9466	308.98	1.2254	29.23
0.9466	314.29	1.2225	29.599
0.9466	319.59	1.2196	29.952
0.9466	324.9	1.2168	30.328
0.9466	330.2	1.214	30.755
0.9466	335.51	1.2112	31.223
0.9466	340.82	1.2085	31.721
0.9466	346.12	1.2058	32.253
0.9466	351.43	1.2031	32.822
0.9466	356.73	1.2004	33.419
0.9466	362.04	1.1978	34.022
0.9466	367.35	1.1951	34.623
0.9466	372.65	1.1925	35.237
0.9466	377.96	1.1898	35.87
0.9466	383.27	1.1872	36.52
0.9466	388.57	1.1846	37.175
0.9466	393.88	1.182	37.83
0.9466	399.18	1.1793	38.486
0.9466	404.49	1.1767	39.145
0.9466	409.8	1.1741	39.811
0.9466	415.1	1.1715	40.481
0.9466	420.41	1.1689	41.157
0.9466	425.71	1.1663	41.836
0.9466	431.02	1.1637	42.525
0.9466	436.33	1.1611	43.225
0.9466	441.63	1.1585	43.938
0.9466	446.94	1.156	44.661
0.9466	452.24	1.1534	45.396
0.9466	457.55	1.1508	46.139
0.9466	462.86	1.1482	46.891
0.9466	468.16	1.1457	47.654
0.9466	473.47	1.1431	48.422
0.9466	478.78	1.1405	49.194
0.9466	484.08	1.1379	49.976
0.9466	489.39	1.1353	50.771
0.9466	494.69	1.1328	51.584
0.9466	500	1.1302	52.42
1.0976	240	1.2847	13.701
1.0976	245.31	1.2827	17.126
1.0976	250.61	1.2805	20.325
1.0976	255.92	1.2781	23.424
1.0976	261.22	1.2755	25.719
1.0976	266.53	1.2728	26.731
1.0976	271.84	1.2699	26.844
1.0976	277.14	1.2668	26.802
1.0976	282.45	1.2637	27.005
1.0976	287.76	1.2605	27.394
1.0976	293.06	1.2572	27.767
1.0976	298.37	1.2541	28.027
1.0976	303.67	1.251	28.2
1.0976	308.98	1.248	28.341
1.0976	314.29	1.2451	28.501
1.0976	319.59	1.2422	28.737
1.0976	324.9	1.2394	29.088
1.0976	330.2	1.2366	29.544
1.0976	335.51	1.2338	30.044
1.0976	340.82	1.2311	30.534
1.0976	346.12	1.2284	31.005
1.0976	351.43	1.2257	31.482
1.0976	356.73	1.223	31.983
1.0976	362.04	1.2204	32.504
1.0976	367.35	1.2178	33.033
1.0976	372.65	1.2151	33.57
1.0976	377.96	1.2125	34.123
1.0976	383.27	1.2099	34.695
1.0976	388.57	1.2073	35.276
1.0976	393.88	1.2048	35.851
1.0976	399.18	1.2022	36.413
1.0976	404.49	1.1996	36.966
1.0976	409.8	1.1971	37.52
1.0976	415.1	1.1945	38.081
1.0976	420.41	1.192	38.651
1.0976	425.71	1.1895	39.226
1.0976	431.02	1.187	39.806
1.0976	436.33	1.1844	40.395
1.0976	441.63	1.1819	40.997
1.0976	446.94	1.1794	41.612
1.0976	452.24	1.1769	42.237
1.0976	457.55	1.1745	42.869
1.0976	462.86	1.172	43.509
1.0976	468.16	1.1695	44.158
1.0976	473.47	1.167	44.82
1.0976	478.78	1.1646	45.495
1.0976	484.08	1.1621	46.184
1.0976	489.39	1.1596	46.885
1.0976	494.69	1.1571	47.604
1.0976	500	1.1547	48.347
1.2726	240	1.3054	-3.776
1.2726	245.31	1.305	9.4354
1.2726	250.61	1.3036	17.912
1.2726	255.92	1.3015	22.793
1.2726	261.22	1.2991	25.203
1.2726	266.53	1.2966	26.104
1.2726	271.84	1.2938	25.931
1.2726	277.14	1.2909	25.537
1.2726	282.45	1.2879	25.477
1.2726	287.76	1.2848	25.779
1.2726	293.06	1.2816	26.28
1.2726	298.37	1.2785	26.804
1.2726	303.67	1.2754	27.246
1.2726	308.98	1.2723	27.569
1.2726	314.29	1.2693	27.791
1.2726	319.59	1.2663	27.971
1.2726	324.9	1.2634	28.173
1.2726	330.2	1.2606	28.435
1.2726	335.51	1.2578	28.754
1.2726	340.82	1.2551	29.114
1.2726	346.12	1.2524	29.504
1.2726	351.43	1.2497	29.922
1.2726	356.73	1.2471	30.37
1.2726	362.04	1.2445	30.841
1.2726	367.35	1.2419	31.327
1.2726	372.65	1.2393	31.828
1.2726	377.96	1.2367	32.343
1.2726	383.27	1.2341	32.871
1.2726	388.57	1.2316	33.4
1.2726	393.88	1.229	33.916
1.2726	399.18	1.2265	34.409
1.2726	404.49	1.224	34.878
1.2726	409.8	1.2215	35.33
1.2726	415.1	1.219	35.776
1.2726	420.41	1.2165	36.226
1.2726	425.71	1.2141	36.686
1.2726	431.02	1.2116	37.161
1.2726	436.33	1.2092	37.654
1.2726	441.63	1.2067	38.162
1.2726	446.94	1.2043	38.683
1.2726	452.24	1.2019	39.212
1.2726	457.55	1.1995	39.744
1.2726	462.86	1.1971	40.28
1.2726	468.16	1.1947	40.821
1.2726	473.47	1.1923	41.371
1.2726	478.78	1.19	41.938
1.2726	484.08	1.1876	42.527
1.2726	489.39	1.1852	43.147
1.2726	494.69	1.1829	43.805
1.2726	500	1.1805	44.513
1.4755	240	1.3378	26.236
1.4755	245.31	1.3357	31.222
1.4755	250.61	1.333	34.146
1.4755	255.92	1.3299	35.213
1.4755	261.22	1.3266	34.332
1.4755	266.53	1.3232	32.128
1.4755	271.84	1.3198	29.345
1.4755	277.14	1.3166	27.129
1.4755	282.45	1.3133	25.792
1.4755	287.76	1.3102	25.15
1.4755	293.06	1.307	25.012
1.4755	298.37	1.3039	25.14
1.4755	303.67	1.3009	25.385
1.4755	308.98	1.2979	25.664
1.4755	314.29	1.2949	25.961
1.4755	319.59	1.292	26.287
1.4755	324.9	1.2892	26.656
1.4755	330.2	1.2863	27.072
1.4755	335.51	1.2835	27.516
1.4755	340.82	1.2808	27.964
1.4755	346.12	1.278	28.399
1.4755	351.43	1.2753	28.812
1.4755	356.73	1.2727	29.205
1.4755	362.04	1.27	29.583
1.4755	367.35	1.2674	29.953
1.4755	372.65	1.2648	30.321
1.4755	377.96	1.2623	30.695
1.4755	383.27	1.2597	31.077
1.4755	388.57	1.2572	31.464
1.4755	393.88	1.2547	31.848
1.4755	399.18	1.2523	32.226
1.4755	404.49	1.2498	32.595
1.4755	409.8	1.2474	32.96
1.4755	415.1	1.2449	33.327
1.4755	420.41	1.2425	33.706
1.4755	425.71	1.2401	34.102
1.4755	431.02	1.2377	34.516
1.4755	436.33	1.2354	34.95
1.4755	441.63	1.233	35.401
1.4755	446.94	1.2307	35.863
1.4755	452.24	1.2283	36.331
1.4755	457.55	1.226	36.802
1.4755	462.86	1.2237	37.274
1.4755	468.16	1.2214	37.744
1.4755	473.47	1.2191	38.218
1.4755	478.78	1.2168	38.701
1.4755	484.08	1.2145	39.204
1.4755	489.39	1.2122	39.735
1.4755	494.69	1.21	40.308
1.4755	500	1.2077	40.935
1.7108	240	1.3746	77.467
1.7108	245.31	1.3686	62.746
1.7108	250.61	1.3633	51.375
1.7108	255.92	1.3587	42.673
1.7108	261.22	1.3546	36.164
1.7108	266.53	1.3509	31.493
1.7108	271.84	1.3474	28.259
1.7108	277.14	1.344	26.152
1.7108	282.45	1.3408	24.878
1.7108	287.76	1.3375	24.213
1.7108	293.06	1.3343	24.02
1.7108	298.37	1.3312	24.103
1.7108	303.67	1.3281	24.305
1.7108	308.98	1.3251	24.551
1.7108	314.29	1.3221	24.816
1.7108	319.59	1.3192	25.107
1.7108	324.9	1.3163	25.436
1.7108	330.2	1.3134	25.804
1.7108	335.51	1.3106	26.197
1.7108	340.82	1.3079	26.595
1.7108	346.12	1.3051	26.981
1.7108	351.43	1.3024	27.346
1.7108	356.73	1.2998	27.687
1.7108	362.04	1.2971	28.01
1.7108	367.35	1.2945	28.321
1.7108	372.65	1.292	28.627
1.7108	377.96	1.2894	28.933
1.7108	383.27	1.2869	29.241
1.7108	388.57	1.2844	29.549
1.7108	393.88	1.282	29.852
1.7108	399.18	1.2795	30.148
1.7108	404.49	1.2771	30.437
1.7108	409.8	1.2747	30.723
1.7108	415.1	1.2724	31.013
1.7108	420.41	1.27	31.313
1.7108	425.71	1.2677	31.631
1.7108	431.02	1.2654	31.969
1.7108	436.33	1.2631	32.327
1.7108	441.63	1.2608	32.705
1.7108	446.94	1.2585	33.099
1.7108	452.24	1.2562	33.504
1.7108	457.55	1.254	33.918
1.7108	462.86	1.2518	34.341
1.7108	468.16	1.2495	34.769
1.7108	473.47	1.2473	35.207
1.7108	478.78	1.2451	35.665
1.7108	484.08	1.2429	36.155
1.7108	489.39	1.2407	36.691
1.7108	494.69	1.2385	37.292
1.7108	500	1.2364	37.979
1.9837	240	1.4066	51.04
1.9837	245.31	1.3999	45.258
1.9837	250.61	1.394	40.158
1.9837	255.92	1.3888	35.736
1.9837	261.22	1.3841	31.989
1.9837	266.53	1.3799	28.884
1.9837	271.84	1.3761	26.388
1.9837	277.14	1.3726	24.481
1.9837	282.45	1.3692	23.214
1.9837	287.76	1.3661	22.573
1.9837	293.06	1.3629	22.452
1.9837	298.37	1.3598	22.561
1.9837	303.67	1.3568	22.767
1.9837	308.98	1.3538	23.025
1.9837	314.29	1.3508	23.306
1.9837	319.59	1.3479	23.605
1.9837	324.9	1.345	23.933
1.9837	330.2	1.3422	24.29
1.9837	335.51	1.3394	24.667
1.9837	340.82	1.3366	25.048
1.9837	346.12	1.3339	25.416
1.9837	351.43	1.3312	25.764
1.9837	356.73	1.3286	26.088
1.9837	362.04	1.326	26.391
1.9837	367.35	1.3234	26.679
1.9837	372.65	1.3208	26.959
1.9837	377.96	1.3183	27.235
1.9837	383.27	1.3158	27.506
1.9837	388.57	1.3133	27.772
1.9837	393.88	1.3109	28.03
1.9837	399.18	1.3085	28.277
1.9837	404.49	1.3061	28.515
1.9837	409.8	1.3037	28.747
1.9837	415.1	1.3014	28.977
1.9837	420.41	1.2991	29.213
1.9837	425.71	1.2968	29.457
1.9837	431.02	1.2945	29.715
1.9837	436.33	1.2922	29.985
1.9837	441.63	1.29	30.267
1.9837	446.94	1.2878	30.557
1.9837	452.24	1.2856	30.852
1.9837	457.55	1.2834	31.149
1.9837	462.86	1.2813	31.447
1.9837	468.16	1.2791	31.741
1.9837	473.47	1.277	32.037
1.9837	478.78	1.2749	32.349
1.9837	484.08	1.2728	32.695
1.9837	489.39	1.2707	33.093
1.9837	494.69	1.2687	33.571
1.9837	500	1.2666	34.157
2.3	240	1.4256	20.919
2.3	245.31	1.422	20.515
2.3	250.61	1.4185	20.244
2.3	255.92	1.4151	20.034
2.3	261.22	1.4117	19.794
2.3	266.53	1.4085	19.628
2.3	271.84	1.4054	19.77
2.3	277.14	1.4022	20.311
2.3	282.45	1.3991	20.801
2.3	287.76	1.3959	20.683
2.3	293.06	1.3929	20.682
2.3	298.37	1.3899	20.74
2.3	303.67	1.3869	20.981
2.3	308.98	1.384	21.319
2.3	314.29	1.3811	21.613
2.3	319.59	1.3782	21.924
2.3	324.9	1.3754	22.256
2.3	330.2	1.3726	22.608
2.3	335.51	1.3698	22.976
2.3	340.82	1.3671	23.345
2.3	346.12	1.3644	23.707
2.3	351.43	1.3617	24.051
2.3	356.73	1.3591	24.375
2.3	362.04	1.3565	24.68
2.3	367.35	1.3539	24.969
2.3	372.65	1.3514	25.248
2.3	377.96	1.3489	25.517
2.3	383.27	1.3464	25.777
2.3	388.57	1.344	26.027
2.3	393.88	1.3415	26.263
2.3	399.18	1.3391	26.484
2.3	404.49	1.3368	26.69
2.3	409.8	1.3344	26.884
2.3	415.1	1.3321	27.069
2.3	420.41	1.3298	27.25
2.3	425.71	1.3275	27.433
2.3	431.02	1.3253	27.619
2.3	436.33	1.3231	27.811
2.3	441.63	1.3209	28.008
2.3	446.94	1.3187	28.208
2.3	452.24	1.3166	28.406
2.3	457.55	1.3145	28.6
2.3	462.86	1.3124	28.788
2.3	468.16	1.3103	28.963
2.3	473.47	1.3082	29.134
2.3	478.78	1.3062	29.32
2.3	484.08	1.3042	29.546
2.3	489.39	1.3022	29.84
2.3	494.69	1.3002	30.233
2.3	500	1.2983	30.768
